Folder: courses/sem2/lab/dragforce/data/water (part 3)

File: DSC_1746_L.txt
0.5005	-205.75	-28.4544
0.517183	-206.449	-52.6944
0.533867	-207.508	-59.3305
0.55055	-208.429	-60.7118
0.567233	-209.534	-90.2334
0.583917	-211.44	-116.123
0.6006	-213.408	-118.038
0.617283	-215.378	-119.91
0.633967	-217.409	-146.553
0.65065	-220.268	-166.038
0.667333	-222.95	-160.879
0.684017	-225.636	-169.292
0.7007	-228.598	-179.579
0.717383	-231.628	-185.422
0.734067	-234.785	-204.495
0.75075	-238.452	-212.922
0.767433	-241.89	-211.42
0.784117	-245.506	-220.486
0.8008	-249.247	-210.736
0.817483	-252.538	-217.935
0.834167	-256.518	-216.091
0.85085	-259.748	-205.885
0.867533	-263.388	-205.382
0.884217	-266.601	-200.437
0.9009	-270.076	-203.503
0.917583	-273.391	-189.094
0.934267	-276.385	-181.039
0.95095	-279.432	-177.031
0.967633	-282.292	-150.832
0.984317	-284.464	-158.879
1.001	-287.593	-193.193
1.01768	-290.911	-197.201
1.03437	-294.173	-188.894
1.05105	-297.213	-186.589
1.06773	-300.399	-189.018
1.08442	-303.52	-190.987
1.1011	-306.772	-205.772
1.11778	-310.386	-204.497
1.13447	-313.595	-208.358
1.15115	-317.338	-220.786
1.16783	-320.962	-213.872
1.18452	-324.475	-225.736
1.2012	-328.494	-236.865
1.21788	-332.378	-237.658
1.23457	-336.424	-243.278
1.25125	-340.495	-240.815
1.26793	-344.459	-238.466
1.28462	-348.452	-238.648
1.3013	-352.422	-235.631
1.31798	-356.314	-239.65
1.33467	-360.418	-244.929
1.35135	-364.487	-240.291
1.36803	-368.436	-241.414
1.38472	-372.542	-240.355
1.4014	-376.456	-233.461
1.41808	-380.332	-241.811
1.43477	-384.524	-245.453
1.45145	-388.522	-238.539
1.46813	-392.484	-244.901
1.48482	-396.693	-251.398
1.5015	-400.872	-240.804
1.51818	-404.728	-237.75
1.53487	-408.805	-243.254
1.55155	-412.845	-250.287
1.56823	-417.156	-256.056
1.58492	-421.389	-250.378
1.6016	-425.51	-245.646
1.61828	-429.585	-228.58
1.63497	-433.137	-214.96
1.65165	-436.757	-222.924
1.66833	-440.576	-232.572
1.68502	-444.518	-215.79
1.7017	-447.776	-201.847
1.71838	-451.253	-195.768
1.73507	-454.308	-178.207
1.75175	-457.199	-210.082
1.76843	-461.318	-219.809
1.78512	-464.533	-207.775
1.8018	-468.25	-234.509
1.81848	-472.358	-237.453
1.83517	-476.173	-216.263
1.85185	-479.574	-216.72
1.86853	-483.405	-228.974
1.88522	-487.214	-241.814
1.9019	-491.473	-244.115
1.91858	-495.359	-185.341
1.93527	-497.657	-237.951
1.95195	-503.299	-291.128
1.96863	-507.371	-264.576
1.98532	-512.127	-267.253
2.002	-516.289	-239.383
2.01868	-520.114	-239.861
2.03537	-524.292	-246.251
2.05205	-528.331	-266.403
2.06873	-533.181	-272.36
2.08542	-537.419	-269.302
2.1021	-542.167	-270.973
2.11878	-546.46	-252.368
2.13547	-550.587	-236.026
2.15215	-554.335	-231.258
2.16883	-558.304	-293.653
2.18552	-564.134	-328.461
2.2022	-569.263	-257.913
2.21888	-572.739	-192.797
2.23557	-575.696	-272.811
2.25225	-581.842	-347.505
2.26893	-587.292	-123.61
2.28562	-585.967	170.414

File: DSC_1748_L.txt
4.92158	-199.987	-1.97481
4.93827	-200.063	-19.7026
4.95495	-200.645	-32.497
4.97163	-201.147	-41.4184
4.98832	-202.027	-57.4737
5.005	-203.065	-63.684
5.02168	-204.152	-88.7361
5.03837	-206.026	-116.553
5.05505	-208.041	-123.344
5.07173	-210.141	-145.886
5.08842	-212.908	-149.21
5.1051	-215.12	-152.154
5.12178	-217.985	-176.283
5.13847	-221.002	-182.979
5.15515	-224.091	-182.272
5.17183	-227.084	-181.501
5.18852	-230.147	-184.14
5.2052	-233.228	-202.569
5.22188	-236.906	-214.169
5.23857	-240.374	-215.081
5.25525	-244.082	-231.349
5.27193	-248.093	-223.177
5.28862	-251.529	-212.601
5.3053	-255.187	-226.532
5.32198	-259.088	-229.728
5.33867	-262.852	-208.887
5.35535	-266.057	-186.492
5.37203	-269.075	-180.303
5.38872	-272.074	-178.029
5.4054	-275.015	-169.605
5.42208	-277.733	-155.736
5.43877	-280.212	-160.387
5.45545	-283.084	-170.578
5.47213	-285.903	-166.467
5.48882	-288.639	-160.153
5.5055	-291.247	-165.839
5.52218	-294.172	-173.228
5.53887	-297.027	-178.88
5.55555	-300.141	-184.632
5.57223	-303.187	-180.74
5.58892	-306.172	-197.36
5.6056	-309.773	-210.581
5.62228	-313.198	-215.951
5.63897	-316.978	-211.999
5.65565	-320.272	-217.418
5.67233	-324.233	-235.928
5.68902	-328.144	-237.02
5.7057	-332.141	-241.358
5.72238	-336.197	-239.073
5.73907	-340.118	-231.109
5.75575	-343.908	-221.496
5.77243	-347.509	-217.579
5.78912	-351.168	-214.007
5.8058	-354.65	-214.141
5.82248	-358.313	-222.202
5.83917	-362.064	-213.466
5.85585	-365.436	-214.514
5.87253	-369.221	-221.358
5.88922	-372.822	-211.714
5.9059	-376.286	-221.853
5.92258	-380.225	-223.195
5.93927	-383.733	-221.94
5.95595	-387.63	-235.451
5.97263	-391.589	-233.868
5.98932	-395.433	-226.175
6.006	-399.136	-231.349
6.02268	-403.153	-231.684
6.03937	-406.866	-228.596
6.05605	-410.78	-233.61
6.07273	-414.661	-231.476
6.08942	-418.504	-229.71
6.1061	-422.326	-231.381
6.12278	-426.224	-227.618
6.13947	-429.921	-217.533
6.15615	-433.483	-224.14
6.17283	-437.399	-245.491
6.18952	-441.674	-229.495
6.2062	-445.057	-229.564
6.22288	-449.334	-219.779
6.23957	-452.39	-204.568
6.25625	-456.159	-187.285
6.27293	-458.639	-174.659
6.28962	-461.987	-236.983
6.3063	-466.547	-236.61
6.32298	-469.882	-183.244
6.33967	-472.661	-164.016
6.35635	-475.355	-176.525
6.37303	-478.551	-216.816
6.38972	-482.589	-243.354
6.4064	-486.671	-242.434
6.42308	-490.678	-246.854
6.43977	-494.908	-247.157
6.45645	-498.925	-233.917
6.47313	-502.713	-220.412
6.48982	-506.279	-224.509
6.5065	-510.204	-338.717
6.52318	-517.581	-241.929
6.53987	-518.276	-97.396
6.55655	-520.831	-129.935
6.57323	-522.612	-238.928
6.58992	-528.803	-292.105
6.6066	-532.358	-235.85
6.62328	-536.673	-250.841
6.63997	-540.728	-236.891
6.65665	-544.577	-243.737
6.67333	-548.861	-254.654
6.69002	-553.074	-251.225

File: DSC_1749_L.txt
0.567233	-201.526	-26.1665
0.583917	-202.321	-30.4716
0.6006	-202.543	-37.4337
0.617283	-203.57	-56.879
0.633967	-204.441	-61.5202
0.65065	-205.623	-105.417
0.667333	-207.958	-103.574
0.684017	-209.079	-98.8003
0.7007	-211.255	-110.975
0.717383	-212.782	-115.669
0.734067	-215.114	-138.912
0.75075	-217.417	-158.669
0.767433	-220.408	-165.617
0.784117	-222.943	-174.814
0.8008	-226.241	-183.22
0.817483	-229.057	-176.65
0.834167	-232.136	-194.657
0.85085	-235.552	-213.361
0.867533	-239.255	-226.611
0.884217	-243.113	-235.485
0.9009	-247.112	-223.623
0.917583	-250.574	-221.358
0.934267	-254.498	-221.715
0.95095	-257.972	-214.378
0.967633	-261.651	-224.869
0.984317	-265.475	-215.435
1.001	-268.84	-206.132
1.01768	-272.353	-203.674
1.03437	-275.635	-205.141
1.05105	-279.198	-202.363
1.06773	-282.388	-194.675
1.08442	-285.694	-194.173
1.1011	-288.867	-206.9
1.11778	-292.597	-219.479
1.13447	-296.19	-201.394
1.15115	-299.317	-194.581
1.16783	-302.682	-211.582
1.18452	-306.377	-221.344
1.2012	-310.068	-213.371
1.21788	-313.497	-217.718
1.23457	-317.332	-230.942
1.25125	-321.202	-233.511
1.26793	-325.124	-232.503
1.28462	-328.96	-240.091
1.3013	-333.135	-247.989
1.31798	-337.235	-246.309
1.33467	-341.353	-246.682
1.35135	-345.466	-246.925
1.36803	-349.592	-249.571
1.38472	-353.793	-246.704
1.4014	-357.824	-253.086
1.41808	-362.238	-247.915
1.43477	-366.096	-248.01
1.45145	-370.513	-258.259
1.46813	-374.714	-250.598
1.48482	-378.875	-265.534
1.5015	-383.573	-265.46
1.51818	-387.732	-263.304
1.53487	-392.359	-269.897
1.55155	-396.738	-266.217
1.56823	-401.242	-266.299
1.58492	-405.623	-261.409
1.6016	-409.964	-264.263
1.61828	-414.441	-271.991
1.63497	-419.04	-271.669
1.65165	-423.505	-258.956
1.66833	-427.68	-259.089
1.68502	-432.15	-269.749
1.7017	-436.681	-264.498
1.71838	-440.976	-259.517
1.73507	-445.34	-263.363
1.75175	-449.763	-260.459
1.76843	-454.031	-240.217
1.78512	-457.779	-234.519
1.8018	-461.856	-239.263
1.81848	-465.762	-266.314
1.83517	-470.742	-262.314
1.85185	-474.515	-232.313
1.86853	-478.493	-238.869
1.88522	-482.485	-231.526
1.9019	-486.218	-236.128
1.91858	-490.364	-240.444
1.93527	-494.241	-218.503
1.95195	-497.654	-237.204
1.96863	-502.156	-240.063
1.98532	-505.664	-241.562
2.002	-510.216	-243.608
2.01868	-513.793	-251.05
2.03537	-518.593	-259.867
2.05205	-522.464	-225.965
2.06873	-526.133	-203.083
2.08542	-529.24	-256.629
2.1021	-534.695	-305.148
2.11878	-539.422	-269.57
2.13547	-543.69	-266.584
2.15215	-548.317	-270.434
2.16883	-552.713	-265.237
2.18552	-557.167	-267.735
2.2022	-561.647	-257.992
2.21888	-565.775	-257.845
2.23557	-570.25	-261.949
2.25225	-574.515	-275.556
2.26893	-579.445	-321.732
2.28562	-585.251	-291.585

File: DSC_1750_L.txt
1.65165	-218.072	-64.6751
1.66833	-219.158	-67.9062
1.68502	-220.337	-69.3979
1.7017	-221.474	-82.0745
1.71838	-223.076	-107.305
1.73507	-225.054	-114.224
1.75175	-226.887	-115.484
1.76843	-228.907	-128.309
1.78512	-231.169	-153.863
1.8018	-234.041	-173.292
1.81848	-236.951	-178.967
1.83517	-240.013	-185.123
1.85185	-243.128	-192.917
1.86853	-246.45	-203.106
1.88522	-249.905	-200.297
1.9019	-253.133	-209.521
1.91858	-256.896	-233.804
1.93527	-260.934	-216.689
1.95195	-264.126	-189.024
1.96863	-267.241	-216.15
1.98532	-271.338	-231.734
2.002	-274.974	-208.143
2.01868	-278.283	-194.421
2.03537	-281.461	-192.416
2.05205	-284.703	-193.72
2.06873	-287.924	-187.479
2.08542	-290.959	-183.977
2.1021	-294.063	-185.676
2.11878	-297.154	-182.509
2.13547	-300.153	-174.078
2.15215	-302.963	-181.579
2.16883	-306.212	-202.949
2.18552	-309.734	-206.629
2.2022	-313.106	-198.62
2.21888	-316.362	-214.927
2.23557	-320.278	-228.224
2.25225	-323.977	-223.135
2.26893	-327.723	-229.716
2.28562	-331.642	-239.582
2.3023	-335.717	-241.714
2.31898	-339.707	-240.947
2.33567	-343.756	-243.523
2.35235	-347.832	-245.682
2.36903	-351.954	-247.035
2.38572	-356.075	-246.364
2.4024	-360.174	-243.952
2.41908	-364.215	-247.566
2.43577	-368.435	-245.312
2.45245	-372.4	-235.135
2.46913	-376.281	-244.996
2.48582	-380.575	-264.186
2.5025	-385.096	-264.581
2.51918	-389.403	-257.657
2.53587	-393.693	-258.502
2.55255	-398.029	-255.738
2.56923	-402.226	-260.055
2.58592	-406.706	-264.747
2.6026	-411.06	-257.606
2.61928	-415.301	-261.683
2.63597	-419.791	-264.136
2.65265	-424.114	-260.29
2.66933	-428.476	-254.478
2.68602	-432.606	-252.448
2.7027	-436.899	-251.658
2.71938	-441.003	-247.746
2.73607	-445.166	-242.469
2.75275	-449.093	-230.804
2.76943	-452.867	-221.041
2.78612	-456.468	-211.009
2.8028	-459.908	-210.536

File: DSC_1751_L.txt
2.5025	-214.434	-11.7387
2.51918	-214.892	-16.9448
2.53587	-214.999	-33.1435
2.55255	-215.998	-55.9682
2.56923	-216.866	-65.1932
2.58592	-218.173	-90.5943
2.6026	-219.889	-98.8096
2.61928	-221.47	-101.274
2.63597	-223.268	-114.148
2.65265	-225.279	-131.158
2.66933	-227.645	-135.758
2.68602	-229.808	-140.824
2.7027	-232.344	-158.218
2.71938	-235.088	-180.094
2.73607	-238.353	-197.521
2.75275	-241.678	-194.351
2.76943	-244.838	-203.275
2.78612	-248.461	-209.33
2.8028	-251.822	-213.632
2.81948	-255.589	-229.074
2.83617	-259.466	-230.061
2.85285	-263.265	-222.311
2.86953	-266.883	-220.777
2.88622	-270.632	-231.071
2.9029	-274.594	-236.937
2.91958	-278.538	-238.62
2.93627	-282.555	-246.09
2.95295	-286.749	-247.041
2.96963	-290.798	-231.163
2.98632	-294.462	-219.027
3.003	-298.107	-215.222
3.01968	-301.643	-204.894
3.03637	-304.943	-197.114
3.05305	-308.22	-200.105
3.06973	-311.62	-189.751
3.08642	-314.552	-173.391
3.1031	-317.406	-172.16
3.11978	-320.296	-169.951
3.13647	-323.076	-169.392
3.15315	-325.948	-169.183
3.16983	-328.721	-168.033
3.18652	-331.555	-177.223
3.2032	-334.635	-177.098
3.21988	-337.464	-173.688
3.23657	-340.43	-179.126
3.25325	-343.441	-183.758
3.26993	-346.561	-188.042
3.28662	-349.715	-196.516
3.3033	-353.119	-201.379
3.31998	-356.434	-205.361
3.33667	-359.971	-208.365
3.35335	-363.387	-213.096
3.37003	-367.081	-219.599
3.38672	-370.714	-218.983
3.4034	-374.388	-221.739
3.42008	-378.113	-232.444
3.43677	-382.144	-234.536
3.45345	-385.939	-223.328
3.47013	-389.595	-225.609
3.48682	-393.466	-234.723
3.5035	-397.427	-219.492
3.52018	-400.79	-240.403
3.53687	-405.449	-260.095
3.55355	-409.469	-228.428
3.57023	-413.071	-231.35
3.58692	-417.188	-250.952
3.6036	-421.444	-257.233
3.62028	-425.771	-235.854
3.63697	-429.314	-211.32
3.65365	-432.822	-186.313
3.67033	-435.53	-147.975
3.68702	-437.76	-302.584
3.7037	-445.627	-280.331
3.72038	-447.113	-214.363
3.73707	-452.779	-232.061
3.75375	-454.856	-105.121
3.77043	-456.287	-165.779
3.78712	-460.388	-250.959
3.8038	-464.66	-246.812
3.82048	-468.623	-225.496
3.83717	-472.184	-228.792
3.85385	-476.257	-234.819
3.87053	-480.02	-239.141
3.88722	-484.236	-235.858
3.9039	-487.889	-225.752
3.92058	-491.769	-233.222
3.93727	-495.671	-242.38
3.95395	-499.856	-247.213
3.97063	-503.92	-248.171
3.98732	-508.137	-262.485
4.004	-512.678	-271.125
4.02068	-517.184	-262.038
4.03737	-521.421	-227.083
4.05405	-524.761	-147.697
4.07073	-526.35	-300.144
4.08742	-534.775	-341.513
4.1041	-537.745	-192.157
4.12078	-541.187	-314.133
4.13747	-548.226	-327.984
4.15415	-552.131	-210.273
4.17083	-555.242	-173.408
4.18752	-557.917	-307.551
4.2042	-565.504	-308.338
4.22088	-568.205	-221.471
4.23757	-572.894	-187.632
4.25425	-574.466	1087.19
4.27093	-536.618	-436.031
4.28762	-589.015	-1687.04
4.3043	-592.909	-239.478
4.32098	-597.005	-110.176
4.33767	-596.585	91.7042
4.35435	-593.945	156.5
4.37103	-591.363	130.066
4.38772	-589.605	93.9055

File: DSC_1752_L.txt
0.784117	-196.673	-13.2112
0.8008	-196.941	-27.0159
0.817483	-197.574	-44.8833
0.834167	-198.438	-41.951
0.85085	-198.974	-37.0281
0.867533	-199.674	-66.3577
0.884217	-201.188	-94.2202
0.9009	-202.818	-90.9354
0.917583	-204.222	-113.145
0.934267	-206.593	-131.469
0.95095	-208.609	-127.851
0.967633	-210.859	-148.651
0.984317	-213.569	-155.206
1.001	-216.038	-159.323
1.01768	-218.885	-176.344
1.03437	-221.922	-179.124
1.05105	-224.862	-191.608
1.06773	-228.315	-202.162
1.08442	-231.607	-195.516
1.1011	-234.839	-209.51
1.11778	-238.598	-221.605
1.13447	-242.233	-215.443
1.15115	-245.787	-218.656
1.16783	-249.529	-214.756
1.18452	-252.952	-208.44
1.2012	-256.484	-202.996
1.21788	-259.726	-194.504
1.23457	-262.974	-182.499
1.25125	-265.815	-174.979
1.26793	-268.812	-182.35
1.28462	-271.899	-179.303
1.3013	-274.795	-182.755
1.31798	-277.997	-177.844
1.33467	-280.729	-172.343
1.35135	-283.748	-183.434
1.36803	-286.85	-185.092
1.38472	-289.924	-192.994
1.4014	-293.289	-205.742
1.41808	-296.789	-206.317
1.43477	-300.173	-208.959
1.45145	-303.761	-222.051
1.46813	-307.582	-229.55
1.48482	-311.42	-230.351
1.5015	-315.268	-245.896
1.51818	-319.625	-248.149
1.53487	-323.548	-238.031
1.55155	-327.567	-242.044
1.56823	-331.624	-245.804
1.58492	-335.769	-249.576
1.6016	-339.952	-252.037
1.61828	-344.179	-250.509
1.63497	-348.311	-250.674
1.65165	-352.543	-251.45
1.66833	-356.701	-254.015
1.68502	-361.018	-259.892
1.7017	-365.372	-256.325
1.71838	-369.571	-250.552
1.73507	-373.732	-250.005
1.75175	-377.913	-267.254
1.76843	-382.65	-277.835
1.78512	-387.183	-267.279
1.8018	-391.568	-259.158
1.81848	-395.831	-265.492
1.83517	-400.427	-272.456
1.85185	-404.922	-262.446
1.86853	-409.184	-263.014
1.88522	-413.697	-263.619
1.9019	-417.98	-268.464
1.91858	-422.655	-276.596
1.93527	-427.209	-266.368
1.95195	-431.543	-261.897
1.96863	-435.947	-275.224
1.98532	-440.726	-267.033
2.002	-444.857	-263.576
2.01868	-449.521	-264.213
2.03537	-453.673	-240.709
2.05205	-457.553	-233.031
2.06873	-461.449	-231.639
2.08542	-465.282	-230.727
2.1021	-469.147	-229.426
2.11878	-472.937	-218.548
2.13547	-476.44	-198.258
2.15215	-479.552	-192.383
2.16883	-482.859	-190.725
2.18552	-485.916	-191.598
2.2022	-489.252	-190.285
2.21888	-492.265	-169.701
2.23557	-494.914	-187.633
2.25225	-498.526	-210.483
2.26893	-501.937	-242.408
2.28562	-506.614	-224.241
2.3023	-509.419	-192.467
2.31898	-513.036	-209.996
2.33567	-516.426	-214.334
2.35235	-520.188	-222.693
2.36903	-523.857	-219.134
2.38572	-527.499	-223.072
2.4024	-531.3	-236.084
2.41908	-535.377	-243.773
2.43577	-539.434	-241.015
2.45245	-543.419	-213.519
2.46913	-546.558	-265.428
2.48582	-552.275	-279.142
2.5025	-555.872	-238.461
2.51918	-560.232	-262.615
2.53587	-564.635	-260.649
2.55255	-568.929	-256.87
2.56923	-573.206	-264.323
2.58592	-577.748	-264.359
2.6026	-582.027	-253.209
2.61928	-586.197	-169.702
2.63597	-587.689	13.9143
2.65265	-585.733	136.557

File: DSC_1753_S.txt
0.4004	497.303	-29.97
0.417083	496.303	-29.97
0.433767	496.303	0.0
0.45045	496.303	-29.97
0.467133	495.303	-59.9401
0.483817	494.303	-89.9101
0.5005	492.303	-119.88
0.517183	490.303	-124.226
0.533867	488.158	-149.85
0.55055	485.303	-205.444
0.567233	481.303	-209.79
0.583917	478.303	-239.76
0.6006	473.303	-257.91
0.617283	469.697	-275.693
0.633967	464.104	-323.637
0.65065	458.899	-319.335
0.667333	453.449	-336.679
0.684017	447.665	-352.265
0.7007	441.695	-370.009
0.717383	435.319	-400.79
0.734067	428.322	-410.527
0.75075	421.621	-380.89
0.767433	415.613	-354.192
0.784117	409.803	-348.019
0.8008	404.001	-343.268
0.817483	398.349	-335.837
0.834167	392.795	-321.322
0.85085	387.628	-300.626
0.867533	382.764	-286.549
0.884217	378.066	-287.217
0.9009	373.181	-313.978
0.917583	367.59	-323.396
0.934267	362.39	-331.345
0.95095	356.534	-349.052
0.967633	350.743	-354.978
0.984317	344.69	-358.044
1.001	338.796	-336.005
1.01768	333.478	-367.315
1.03437	326.54	-384.363
1.05105	320.653	-355.484
1.06773	314.679	-360.458
1.08442	308.626	-375.024
1.1011	302.166	-386.3
1.11778	295.737	-361.931
1.13447	290.089	-341.378
1.15115	284.346	-356.483
1.16783	278.195	-352.777
1.18452	272.575	-343.474
1.2012	266.734	-344.766
1.21788	261.071	-353.003
1.23457	254.956	-353.363
1.25125	249.281	-340.286
1.26793	243.601	-340.349
1.28462	237.924	-346.043
1.3013	232.055	-350.058
1.31798	226.244	-358.981
1.33467	220.077	-363.04
1.35135	214.131	-362.667
1.36803	207.976	-379.262
1.38472	201.476	-377.079
1.4014	195.394	-374.723
1.41808	188.973	-395.486
1.43477	182.198	-401.7
1.45145	175.569	-399.6
1.46813	168.865	-403.704
1.48482	162.099	-401.91
1.5015	155.454	-390.293
1.51818	149.076	-409.398
1.53487	141.794	-418.519
1.55155	135.112	-405.506
1.56823	128.264	-419.329
1.58492	121.12	-430.144
1.6016	113.911	-414.179
1.61828	107.3	-413.18
1.63497	100.125	-410.435
1.65165	93.6055	-400.077
1.66833	86.7757	-425.135
1.68502	79.4202	-422.977
1.7017	72.6623	-397.838
1.71838	66.1457	-406.02
1.73507	59.1148	-410.501
1.75175	52.4486	-387.967
1.76843	46.1696	-381.139
1.78512	39.7313	-418.035
1.8018	32.2212	-444.431
1.81848	24.9021	-425.61
1.83517	18.02	-434.424
1.85185	10.4069	-434.612
1.86853	3.51846	-434.71
1.88522	-4.09798	-422.147
1.9019	-10.5672	-408.407
1.91858	-17.7252	-427.561
1.93527	-24.8335	-434.515
1.95195	-32.2235	-480.545
1.96863	-40.8677	-447.448
1.98532	-47.1533	-411.731
2.002	-54.6058	-452.245
2.01868	-62.2432	-442.699
2.03537	-69.3772	-422.265
2.05205	-76.3328	-416.359
2.06873	-83.2697	-368.933
2.08542	-88.6429	-345.362
2.1021	-94.7933	-443.174
2.11878	-103.43	-453.501
2.13547	-109.925	-388.75
2.15215	-116.401	-381.608
2.16883	-122.658	-350.324
2.18552	-128.091	-342.524
2.2022	-134.087	-397.342
2.21888	-141.349	-406.245
2.23557	-147.642	-356.027
2.25225	-153.228	-299.443

File: DSC_1754_M.txt
2.23557	468.109	-29.4155
2.25225	467.12	-56.4208
2.26893	466.226	-93.1187
2.28562	464.013	-125.914
2.3023	462.025	-142.584
2.31898	459.255	-201.196
2.33567	455.311	-234.989
2.35235	451.415	-258.679
2.36903	446.68	-281.552
2.38572	442.02	-312.329
2.4024	436.259	-348.775
2.41908	430.383	-360.032
2.43577	424.246	-390.576
2.45245	417.351	-423.491
2.46913	410.115	-454.271
2.48582	402.193	-471.914
2.5025	394.369	-483.94
2.51918	386.046	-493.73
2.53587	377.895	-498.007
2.55255	369.429	-480.847
2.56923	361.851	-464.255
2.58592	353.938	-466.572
2.6026	346.283	-446.964
2.61928	339.024	-426.475
2.63597	332.053	-392.792
2.65265	325.918	-388.201
2.66933	319.1	-385.733
2.68602	313.048	-391.021
2.7027	306.053	-416.78
2.71938	299.141	-416.579
2.73607	292.153	-420.833
2.75275	285.099	-421.333
2.76943	278.094	-442.221
2.78612	270.344	-459.21
2.8028	262.772	-452.558
2.81948	255.243	-456.762
2.83617	247.531	-483.174
2.85285	239.122	-508.529
2.86953	230.563	-493.227
2.88622	222.664	-482.147
2.9029	214.476	-485.926
2.91958	206.451	-489.032
2.93627	198.158	-491.313
2.95295	190.057	-482.646
2.96963	182.054	-481.712
2.98632	173.984	-481.276
3.003	165.996	-475.035
3.01968	158.134	-473.984
3.03637	150.18	-480.004
3.05305	142.117	-479.367
3.06973	134.185	-482.275
3.08642	126.026	-483.712
3.1031	118.046	-479.169
3.11978	110.037	-480.145
3.13647	102.025	-482.145
3.15315	93.9497	-482.949
3.16983	85.9103	-479.769
3.18652	77.9414	-479.053
3.2032	69.9259	-479.277
3.21988	61.9495	-480.792
3.23657	53.8835	-483.624
3.25325	45.8126	-485.803
3.26993	37.6739	-476.411
3.28662	29.9163	-474.161
3.3033	21.8527	-481.74
3.31998	13.8423	-481.31
3.33667	5.79296	-484.749
3.35335	-2.33216	-486.254
3.37003	-10.4317	-473.357
3.38672	-18.1265	-472.828
3.4034	-26.2084	-481.332
3.42008	-34.1869	-483.98
3.43677	-42.3572	-484.988
3.45345	-50.3694	-488.912
3.47013	-58.6705	-498.466
3.48682	-67.0015	-501.74
3.5035	-75.4119	-504.206
3.52018	-83.8252	-504.969
3.53687	-92.2611	-512.685
3.55355	-100.932	-521.681
3.57023	-109.668	-531.852
3.58692	-118.678	-525.784
3.6036	-127.212	-506.223
3.62028	-135.569	-500.034
3.63697	-143.896	-518.513
3.65365	-152.87	-544.692
3.67033	-162.071	-550.167
3.68702	-171.227	-540.864
3.7037	-180.117	-533.543
3.72038	-189.03	-534.443
3.73707	-197.95	-535.414
3.75375	-206.895	-539.238
3.77043	-215.943	-536.988
3.78712	-224.812	-536.94
3.8038	-233.858	-530.783
3.82048	-242.523	-520.899
3.83717	-251.239	-522.141
3.85385	-259.945	-522.103
3.87053	-268.66	-535.828
3.88722	-277.824	-534.92
3.9039	-286.508	-512.932
3.92058	-294.938	-505.1
3.93727	-303.362	-520.814
3.95395	-312.316	-530.882
3.97063	-321.076	-528.145
3.98732	-329.939	-526.738
4.004	-338.651	-521.671
4.02068	-347.345	-524.684
4.03737	-356.158	-526.103
4.05405	-364.899	-521.824
4.07073	-373.57	-518.404

File: DSC_1756_M.txt
2.03537	498.686	-6.20494
2.05205	498.521	-22.7033
2.06873	497.928	-38.092
2.08542	497.25	-51.4896
2.1021	496.21	-84.0626
2.11878	494.445	-137.485
2.13547	491.623	-173.387
2.15215	488.66	-203.07
2.16883	484.847	-237.067
2.18552	480.75	-264.498
2.2022	476.021	-319.423
2.21888	470.091	-363.373
2.23557	463.897	-371.23
2.25225	457.705	-374.313
2.26893	451.407	-396.078
2.28562	444.489	-442.231
2.3023	436.652	-482.314
2.31898	428.396	-489.53
2.33567	420.318	-480.977
2.35235	412.347	-501.384
2.36903	403.588	-522.724
2.38572	394.906	-498.615
2.4024	386.951	-466.505
2.41908	379.34	-459.278
2.43577	371.626	-460.473
2.45245	363.975	-445.926
2.46913	356.747	-422.775
2.48582	349.869	-401.683
2.5025	343.344	-387.334
2.51918	336.945	-379.561
2.53587	330.68	-369.061
2.55255	324.63	-371.663
2.56923	318.279	-405.944
2.58592	311.085	-418.515
2.6026	304.314	-408.873
2.61928	297.443	-419.404
2.63597	290.32	-436.761
2.65265	282.869	-442.665
2.66933	275.55	-443.631
2.68602	268.067	-507.194
2.7027	258.626	-525.755
2.71938	250.524	-478.39
2.73607	242.664	-476.919
2.75275	234.611	-489.685
2.76943	226.325	-496.379
2.78612	218.049	-495.27
2.8028	209.799	-491.469
2.81948	201.65	-487.306
2.83617	193.54	-488.245
2.85285	185.359	-490.378
2.86953	177.177	-492.066
2.88622	168.94	-499.267
2.9029	160.519	-501.899
2.91958	152.193	-503.231
2.93627	143.727	-499.565
2.95295	135.525	-491.262
2.96963	127.336	-491.768
2.98632	119.116	-498.544
3.003	110.701	-496.401
3.01968	102.553	-486.216
3.03637	94.4775	-480.064
3.05305	86.5346	-477.678
3.06973	78.539	-476.545
3.08642	70.6339	-475.714
3.1031	62.666	-474.76
3.11978	54.7927	-473.361
3.13647	46.8715	-464.209
3.15315	39.3036	-458.274
3.16983	31.5804	-467.778
3.18652	23.6954	-475.047
3.2032	15.7297	-475.358
3.21988	7.83429	-467.41
3.23657	0.133761	-468.389
3.25325	-7.7943	-469.683
3.26993	-15.538	-471.208
3.28662	-23.5169	-479.458
3.3033	-31.5359	-484.691
3.31998	-39.6895	-487.124
3.33667	-47.7896	-482.014
3.35335	-55.7727	-484.384
3.37003	-63.9519	-495.5
3.38672	-72.3059	-498.83
3.4034	-80.5962	-513.834
3.42008	-89.4508	-533.292
3.43677	-98.3904	-504.027
3.45345	-106.268	-468.396
3.47013	-114.019	-476.482
3.48682	-122.167	-504.49
3.5035	-130.852	-541.796
3.52018	-140.245	-554.507
3.53687	-149.354	-539.138
3.55355	-158.234	-529.508
3.57023	-167.022	-531.832
3.58692	-175.98	-540.466
3.6036	-185.056	-549.158
3.62028	-194.303	-541.824
3.63697	-203.135	-539.441
3.65365	-212.303	-550.782
3.67033	-221.513	-538.146
3.68702	-230.259	-532.761
3.7037	-239.289	-542.557
3.72038	-248.362	-536.653
3.73707	-257.195	-529.873
3.75375	-266.042	-530.447
3.77043	-274.895	-538.82
3.78712	-284.021	-529.642
3.8038	-292.567	-542.182
3.82048	-302.112	-543.187
3.83717	-310.691	-561.135
3.85385	-320.835	-559.554
3.87053	-329.362	-545.569
3.88722	-339.039	-535.765
3.9039	-347.238	-522.003
3.92058	-356.456	-548.582
3.93727	-365.543	-546.252
3.95395	-374.683	-556.397
3.97063	-384.108	-564.849
3.98732	-393.53	-549.123