Folder: courses/sem2/lab/dragforce/data/water

Note: README.md
# courses
Assignments and notes for self-study and credit courses.

LaTeX templates taken from [here](https://github.com/adivijaykumar/latex-homework-template).

File: DSC_1723_S.txt
#t	x	v
3.26993	-1.34204	-33.7938
3.28662	-2.09217	-73.0054
3.3033	-3.77799	-96.3297
3.31998	-5.30637	-98.6671
3.33667	-7.07019	-105.812
3.35335	-8.83695	-107.015
3.37003	-10.6409	-118.324
3.38672	-12.785	-134.463
3.4034	-15.1275	-154.802
3.42008	-17.9503	-157.191
3.43677	-20.3725	-151.399
3.45345	-23.0019	-162.411
3.47013	-25.7916	-163.759
3.48682	-28.466	-166.142
3.5035	-31.3352	-170.468
3.52018	-34.154	-164.913
3.53687	-36.8378	-161.835
3.55355	-39.5539	-167.4
3.57023	-42.4234	-165.238
3.58692	-45.0673	-162.221
3.6036	-47.8361	-160.5
3.62028	-50.4227	-150.849
3.63697	-52.8695	-138.913
3.65365	-55.0577	-130.474
3.67033	-57.2229	-129.938
3.68702	-59.3933	-129.354
3.7037	-61.539	-131.62
3.72038	-63.7851	-130.971
3.73707	-65.9091	-126.254
3.75375	-67.9977	-135.007
3.77043	-70.4138	-145.57
3.78712	-72.8549	-139.498
3.8038	-75.0684	-146.171
3.82048	-77.7322	-149.537
3.83717	-80.058	-151.343
3.85385	-82.782	-167.071
3.87053	-85.6326	-164.803
3.88722	-88.2809	-155.644
3.9039	-90.8259	-158.177
3.92058	-93.5588	-164.17
3.93727	-96.3037	-183.396
3.95395	-99.6781	-187.826
3.97063	-102.571	-192.511
3.98732	-106.102	-182.937
4.004	-108.675	-159.795
4.02068	-111.433	-171.867
4.03737	-114.409	-176.756
4.05405	-117.331	-172.63
4.07073	-120.17	-173.255
4.08742	-123.112	-174.781
4.1041	-126.001	-177.943
4.12078	-129.049	-177.399
4.13747	-131.921	-176.222
4.15415	-134.929	-179.634
4.17083	-137.914	-180.707
4.18752	-140.959	-184.36
4.2042	-144.066	-180.562
4.22088	-146.984	-182.191
4.23757	-150.145	-184.444
4.25425	-153.138	-181.89
4.27093	-156.214	-185.359
4.28762	-159.323	-185.708
4.3043	-162.411	-185.039
4.32098	-165.497	-190.594
4.33767	-168.77	-189.21
4.35435	-171.81	-182.599
4.37103	-174.863	-180.865
4.38772	-177.845	-182.422
4.4044	-180.95	-186.961
4.42108	-184.083	-184.588
4.43777	-187.109	-183.369
4.45445	-190.202	-185.345
4.47113	-193.293	-187.952
4.48782	-196.473	-195.887
4.5045	-199.829	-192.037
4.52118	-202.881	-183.572
4.53787	-205.954	-185.064
4.55455	-209.056	-188.808
4.57123	-212.254	-186.652
4.58792	-215.284	-193.218
4.6046	-218.701	-197.09
4.62128	-221.86	-186.368
4.63797	-224.92	-184.896
4.65465	-228.029	-183.392
4.67133	-231.039	-180.228
4.68802	-234.043	-193.409
4.7047	-237.492	-208.511
4.72138	-241	-205.659
4.73807	-244.354	-188.584
4.75475	-247.293	-172.858
4.77143	-250.122	-192.479
4.78812	-253.715	-194.336
4.8048	-256.606	-183.579
4.82148	-259.84	-194.314
4.83817	-263.09	-200.391
4.85485	-266.527	-181.511
4.87153	-269.146	-179.11
4.88822	-272.503	-204.933
4.9049	-275.984	-203.901
4.92158	-279.307	-202.098
4.93827	-282.728	-199.458
4.95495	-285.962	-194.966
4.97163	-289.233	-201.47
4.98832	-292.684	-202.48
5.005	-295.989	-194.437
5.02168	-299.172	-194.355
5.03837	-302.474	-200.539
5.05505	-305.863	-200.934
5.07173	-309.179	-198.549
5.08842	-312.488	-200.185
5.1051	-315.858	-199.537
5.12178	-319.146	-198.732
5.13847	-322.489	-210.489
5.15515	-326.169	-214.908
5.17183	-329.66	-182.791
5.18852	-332.269	-143.297

File: DSC_1724_M.txt
# t	x	v
1.48482	-0.287002	-0.463922
1.5015	-0.313133	-2.46593
1.51818	-0.369281	-6.39997
1.53487	-0.526678	-15.8721
1.55155	-0.898881	-18.5521
1.56823	-1.1457	-12.1871
1.58492	-1.30552	-24.9081
1.6016	-1.9768	-42.9709
1.61828	-2.73932	-54.9696
1.63497	-3.81095	-61.0531
1.65165	-4.77646	-63.5692
1.66833	-5.93205	-73.7101
1.68502	-7.23592	-85.0898
1.7017	-8.77121	-105.636
1.71838	-10.7606	-123.945
1.73507	-12.9068	-132.871
1.75175	-15.1941	-146.95
1.76843	-17.8101	-155.619
1.78512	-20.3866	-159.079
1.8018	-23.118	-168.464
1.81848	-26.0077	-178.619
1.83517	-29.078	-182.219
1.85185	-32.0877	-178.044
1.86853	-35.0187	-178.835
1.88522	-38.0549	-181.974
1.9019	-41.0906	-187.03
1.91858	-44.2954	-183.011
1.93527	-47.197	-170.347
1.95195	-49.9793	-168.83
1.96863	-52.8303	-165.675
1.98532	-55.5074	-159.859
2.002	-58.1643	-165.758
2.01868	-61.0381	-170.115
2.03537	-63.8404	-173.722
2.05205	-66.8347	-165.832
2.06873	-69.3737	-158.217
2.08542	-72.1138	-181.277
2.1021	-75.4223	-195.265
2.11878	-78.6292	-192.977
2.13547	-81.8613	-188.343
2.15215	-84.9136	-179.951
2.16883	-87.8657	-182.821
2.18552	-91.0137	-188.376
2.2022	-94.1511	-198.1
2.21888	-97.6237	-228.302
2.23557	-101.769	-214.406
2.25225	-104.778	-180.444
2.26893	-107.79	-190.729
2.28562	-111.142	-210.182
2.3023	-114.803	-215.936
2.31898	-118.347	-213.972
2.33567	-121.942	-222.704
2.35235	-125.778	-221.108
2.36903	-129.32	-219.75
2.38572	-133.11	-228.714
2.4024	-136.951	-229.184
2.41908	-140.757	-227.556
2.43577	-144.544	-223.202
2.45245	-148.205	-222.784
2.46913	-151.978	-229.927
2.48582	-155.876	-228.806
2.5025	-159.612	-216.543
2.51918	-163.102	-219.22
2.53587	-166.927	-228.727
2.55255	-170.734	-218.729
2.56923	-174.225	-220.854
2.58592	-178.103	-224.423
2.6026	-181.713	-210.002
2.61928	-185.11	-216.646
2.63597	-188.942	-229.705
2.65265	-192.774	-222.979
2.66933	-196.382	-214.669
2.68602	-199.937	-224.928
2.7027	-203.887	-232.402
2.71938	-207.692	-219.827
2.73607	-211.222	-217.157
2.75275	-214.937	-221.463
2.76943	-218.612	-217.801
2.78612	-222.205	-218.461
2.8028	-225.901	-224.694
2.81948	-229.702	-229.772
2.83617	-233.568	-236.044
2.85285	-237.578	-222.94
2.86953	-241.006	-213.072
2.88622	-244.688	-223.808
2.9029	-248.474	-223.008
2.91958	-252.129	-233.213
2.93627	-256.256	-230.128
2.95295	-259.807	-230.068
2.96963	-263.932	-237.16
2.98632	-267.72	-238.519
3.003	-271.891	-250.853
3.01968	-276.091	-245.349
3.03637	-280.077	-236.931
3.05305	-283.996	-237.451
3.06973	-288	-239.644
3.08642	-291.992	-238.438
3.1031	-295.956	-236.856
3.11978	-299.895	-236.518
3.13647	-303.848	-237.123
3.15315	-307.807	-238.56
3.16983	-311.808	-237.909
3.18652	-315.746	-238.304
3.2032	-319.759	-237.38
3.21988	-323.666	-219.618
3.23657	-327.087	-215.457
3.25325	-330.855	-226.258
3.26993	-334.637	-225.863
3.28662	-338.391	-223.699
3.3033	-342.101	-229.212
3.31998	-346.04	-233.687
3.33667	-349.898	-232.96
3.35335	-353.813	-228.694
3.37003	-357.529	-231.058
3.38672	-361.522	-231.173
3.4034	-365.242	-225.276
3.42008	-369.039	-232.441
3.43677	-372.998	-236.5
3.45345	-376.93	-231.323
3.47013	-380.717	-231.872
3.48682	-384.667	-233.749
3.5035	-388.516	-217.066
3.52018	-391.91	-200.776
3.53687	-395.215	-180.385

File: DSC_1725_L.txt
# t x v
1.21788	-198.967	-6.48016
1.23457	-199.068	-6.23399
1.25125	-199.175	-7.43418
1.26793	-199.316	-25.1986
1.28462	-200.016	-31.4769
1.3013	-200.366	-36.456
1.31798	-201.233	-55.5012
1.33467	-202.218	-60.7157
1.35135	-203.258	-66.8362
1.36803	-204.448	-87.1964
1.38472	-206.168	-106.716
1.4014	-208.009	-118.39
1.41808	-210.118	-128.924
1.43477	-212.311	-150.258
1.45145	-215.132	-152.586
1.46813	-217.402	-155.937
1.48482	-220.335	-177.322
1.5015	-223.318	-187.246
1.51818	-226.583	-204.253
1.53487	-230.134	-199.835
1.55155	-233.25	-201.613
1.56823	-236.861	-212.581
1.58492	-240.344	-219.153
1.6016	-244.173	-218.39
1.61828	-247.631	-213.426
1.63497	-251.295	-221.521
1.65165	-255.022	-209.742
1.66833	-258.293	-198.639
1.68502	-261.65	-202.552
1.7017	-265.051	-191.651
1.71838	-268.045	-177.311
1.73507	-270.968	-173.4
1.75175	-273.83	-164.917
1.76843	-276.47	-166.648
1.78512	-279.391	-175.069
1.8018	-282.312	-175.19
1.81848	-285.236	-177.418
1.83517	-288.232	-180.02
1.85185	-291.243	-180.54
1.86853	-294.256	-183.028
1.88522	-297.35	-211.674
1.9019	-301.319	-199.491
1.91858	-304.006	-180.266
1.93527	-307.334	-210.426
1.95195	-311.028	-215.736
1.96863	-314.532	-219.34
1.98532	-318.346	-233.433
2.002	-322.321	-236.215
2.01868	-326.228	-236.207
2.03537	-330.202	-238.941
2.05205	-334.201	-240.783
2.06873	-338.236	-239.708
2.08542	-342.199	-238.367
2.1021	-346.19	-239.205
2.11878	-350.18	-241.823
2.13547	-354.259	-235.611
2.15215	-358.042	-235.01
2.16883	-362.1	-239.306
2.18552	-366.027	-238.543
2.2022	-370.06	-242.273
2.21888	-374.111	-237.737
2.23557	-377.992	-238.987
2.25225	-382.085	-244.958
2.26893	-386.166	-247.322
2.28562	-390.337	-243.632
2.3023	-394.295	-243.435
2.31898	-398.46	-249.621
2.33567	-402.624	-254.271
2.35235	-406.944	-260.786
2.36903	-411.325	-251.149
2.38572	-415.324	-245.608
2.4024	-419.52	-255.143
2.41908	-423.837	-259.505
2.43577	-428.179	-248.38
2.45245	-432.125	-236.647
2.46913	-436.075	-251.784
2.48582	-440.526	-246.121
2.5025	-444.288	-231.816
2.51918	-448.261	-236.651
2.53587	-452.184	-224.651
2.55255	-455.757	-188.563
2.56923	-458.476	-224.465
2.58592	-463.246	-253.971
2.6026	-466.95	-236.786
2.61928	-471.147	-251.921
2.63597	-475.355	-241.908
2.65265	-479.219	-229.571
2.66933	-483.015	-238.195
2.68602	-487.167	-237.153
2.7027	-490.928	-235.934
2.71938	-495.039	-248.269
2.73607	-499.212	-244.038
2.75275	-503.182	-234.73
2.76943	-507.045	-243.118
2.78612	-511.294	-250.618
2.8028	-515.407	-262.317
2.81948	-520.046	-263.24
2.83617	-524.19	-247.14
2.85285	-528.293	-215.914
2.86953	-531.395	-264.198
2.88622	-537.108	-304.061
2.9029	-541.54	-273.656
2.91958	-546.239	-282.126
2.93627	-550.954	-280.005
2.95295	-555.582	-281.245
2.96963	-560.338	-265.7
2.98632	-564.447	-265.446
3.003	-569.195	-270.743
3.01968	-573.481	-272.259
3.03637	-578.279	-271.976

File: DSC_1727_S.txt
0.2002	-197.848	-57.3428
0.216883	-199.17	-75.9696
0.233567	-200.383	-89.9597
0.25025	-202.172	-108.047
0.266933	-203.988	-106.641
0.283617	-205.73	-105.828
0.3003	-207.52	-118.736
0.316983	-209.692	-142.171
0.333667	-212.263	-152.789
0.35035	-214.79	-149.832
0.367033	-217.263	-145.511
0.383717	-219.645	-148.503
0.4004	-222.218	-153.964
0.417083	-224.783	-151.88
0.433767	-227.286	-147.047
0.45045	-229.689	-132.667
0.467133	-231.712	-118.07
0.483817	-233.629	-112.89
0.5005	-235.479	-118.795
0.517183	-237.592	-117.333
0.533867	-239.394	-112.642
0.55055	-241.351	-118.001
0.567233	-243.331	-119.995
0.583917	-245.355	-122.305
0.6006	-247.412	-127.99
0.617283	-249.625	-138.57
0.633967	-252.036	-143.509
0.65065	-254.414	-148.226
0.667333	-256.982	-148.579
0.684017	-259.371	-153.389
0.7007	-262.1	-152.932
0.717383	-264.474	-154.082
0.734067	-267.241	-159.292
0.75075	-269.789	-157.191
0.767433	-272.486	-161.438
0.784117	-275.176	-161.256
0.8008	-277.866	-157.562
0.817483	-280.433	-160.246
0.834167	-283.213	-146.918
0.85085	-285.335	-152.497
0.867533	-288.302	-156.583
0.884217	-290.56	-153.668
0.9009	-293.429	-170.642
0.917583	-296.254	-185.801
0.934267	-299.629	-172.363
0.95095	-302.005	-136.915
0.967633	-304.197	-146.639
0.984317	-306.898	-158.049
1.001	-309.47	-158.545
1.01768	-312.188	-167.171
1.03437	-315.048	-158.771
1.05105	-317.486	-154.765
1.06773	-320.212	-166.55
1.08442	-323.043	-164.027
1.1011	-325.685	-156.157
1.11778	-328.253	-159.785
1.13447	-331.017	-156.632
1.15115	-333.48	-157.344
1.16783	-336.267	-169.965
1.18452	-339.151	-172.934
1.2012	-342.037	-176.33
1.21788	-345.034	-181.819
1.23457	-348.104	-174.378
1.25125	-350.853	-167.475
1.26793	-353.692	-179.031
1.28462	-356.826	-176.617
1.3013	-359.585	-172.57
1.31798	-362.584	-180.897
1.33467	-365.621	-177.38
1.35135	-368.503	-179.987
1.36803	-371.627	-183.042
1.38472	-374.61	-175.909
1.4014	-377.496	-174.776
1.41808	-380.442	-175.55
1.43477	-383.354	-177.239
1.45145	-386.356	-179.341
1.46813	-389.338	-176.23
1.48482	-392.236	-174.011
1.5015	-395.144	-171.217
1.51818	-397.949	-161.324
1.53487	-400.527	-176.099
1.55155	-403.825	-211.301
1.56823	-407.577	-197.615
1.58492	-410.419	-166.626
1.6016	-413.137	-169.604
1.61828	-416.078	-183.31
1.63497	-419.253	-180.954
1.65165	-422.116	-177.837
1.66833	-425.187	-180.774
1.68502	-428.148	-178.844
1.7017	-431.154	-178.148
1.71838	-434.092	-181.517
1.73507	-437.211	-180.956
1.75175	-440.13	-172.999
1.76843	-442.983	-158.015

File: DSC_1728_M.txt
0.483817	-198.408	-20.248
0.5005	-198.897	-51.2338
0.517183	-200.118	-65.747
0.533867	-201.091	-63.4085
0.55055	-202.233	-65.9643
0.567233	-203.292	-80.0121
0.583917	-204.903	-105.401
0.6006	-206.809	-122.103
0.617283	-208.977	-136.796
0.633967	-211.373	-152.669
0.65065	-214.071	-163.38
0.667333	-216.825	-164.6
0.684017	-219.564	-167.943
0.7007	-222.428	-191.342
0.717383	-225.948	-204.657
0.734067	-229.257	-191.875
0.75075	-232.35	-188.783
0.767433	-235.556	-194.517
0.784117	-238.841	-202.338
0.8008	-242.307	-210.116
0.817483	-245.852	-206.843
0.834167	-249.209	-193.641
0.85085	-252.313	-190.139
0.867533	-255.553	-198.626
0.884217	-258.94	-199.524
0.9009	-262.211	-190.557
0.917583	-265.298	-189.523
0.934267	-268.535	-196.467
0.95095	-271.854	-198.67
0.967633	-275.164	-195.321
0.984317	-278.371	-187.693
1.001	-281.426	-185.242
1.01768	-284.552	-189.797
1.03437	-287.759	-204.793
1.05105	-291.385	-226.929
1.06773	-295.331	-219.57
1.08442	-298.712	-207.891
1.1011	-302.268	-214.515
1.11778	-305.869	-216.549
1.13447	-309.493	-215.01
1.15115	-313.043	-211.917
1.16783	-316.564	-216.53
1.18452	-320.268	-223.527
1.2012	-324.022	-212.04
1.21788	-327.343	-209.067
1.23457	-330.998	-217.037
1.25125	-334.585	-215.33
1.26793	-338.183	-227.938
1.28462	-342.191	-233.627
1.3013	-345.979	-228.826
1.31798	-349.826	-229.138
1.33467	-353.624	-222.568
1.35135	-357.252	-228.022
1.36803	-361.232	-228.501
1.38472	-364.877	-220.62
1.4014	-368.594	-219.785
1.41808	-372.21	-224.486
1.43477	-376.084	-228.848
1.45145	-379.846	-222.848
1.46813	-383.52	-222.211
1.48482	-387.26	-227.623
1.5015	-391.115	-225.83
1.51818	-394.795	-227.29
1.53487	-398.699	-222.907
1.55155	-402.233	-205.038
1.56823	-405.54	-209.938
1.58492	-409.238	-242.874
1.6016	-413.644	-260.357
1.61828	-417.925	-235.406
1.63497	-421.499	-223.023
1.65165	-425.367	-235.191
1.66833	-429.346	-236.438
1.68502	-433.256	-237.559
1.7017	-437.273	-238.223
1.71838	-441.205	-213.493
1.73507	-444.396	-365.357
1.75175	-453.395	-303.886
1.76843	-454.536	-132.539
1.78512	-457.818	-193.391
1.8018	-460.989	-195.369
1.81848	-464.337	-212.152
1.83517	-468.068	-240.117
1.85185	-472.349	-249.475
1.86853	-476.392	-246.08
1.88522	-480.559	-235.469
1.9019	-484.249	-237.893
1.91858	-488.497	-248.719
1.93527	-492.548	-240.087
1.95195	-496.508	-238.791
1.96863	-500.515	-242.338
1.98532	-504.594	-249.875

File: DSC_1729_L.txt
0.967633	-203.408	2.08569
0.984317	-203.366	2.019
1.001	-203.341	2.92634
1.01768	-203.269	2.40381
1.03437	-203.261	0.0874515
1.05105	-203.266	-1.12404
1.06773	-203.298	-7.79291
1.08442	-203.526	-30.2172
1.1011	-204.307	-36.1858
1.11778	-204.733	-39.7717
1.13447	-205.634	-50.7972
1.15115	-206.428	-55.8677
1.16783	-207.498	-62.4519
1.18452	-208.512	-88.0461
1.2012	-210.436	-115.169
1.21788	-212.355	-110.658
1.23457	-214.128	-119.092
1.25125	-216.328	-129.661
1.26793	-218.454	-151.794
1.28462	-221.393	-176.694
1.3013	-224.35	-174.591
1.31798	-227.219	-181.861
1.33467	-230.418	-186.59
1.35135	-233.445	-180.415
1.36803	-236.438	-206.877
1.38472	-240.347	-226.038
1.4014	-243.98	-214.409
1.41808	-247.502	-219.399
1.43477	-251.301	-221.282
1.45145	-254.885	-213.314
1.46813	-258.418	-222.969
1.48482	-262.325	-212.078
1.5015	-265.495	-200.707
1.51818	-269.022	-203.074
1.53487	-272.27	-188.55
1.55155	-275.313	-185.182
1.56823	-278.449	-180.388
1.58492	-281.332	-180.719
1.6016	-284.479	-180.502
1.61828	-287.355	-175.403
1.63497	-290.332	-185.931
1.65165	-293.559	-187.403
1.66833	-296.585	-194.851
1.68502	-300.06	-201.69
1.7017	-303.315	-194.324
1.71838	-306.544	-212.485
1.73507	-310.405	-222.75
1.75175	-313.976	-216.372
1.76843	-317.624	-228.019
1.78512	-321.585	-239.833
1.8018	-325.627	-236.856
1.81848	-329.488	-240.872
1.83517	-333.664	-247.653
1.85185	-337.751	-240.456
1.86853	-341.687	-238.834
1.88522	-345.72	-239.173
1.9019	-349.667	-242.44
1.91858	-353.81	-241.433
1.93527	-357.723	-235.435
1.95195	-361.665	-233.643
1.96863	-365.519	-241.971
1.98532	-369.739	-237.698
2.002	-373.45	-227.18
2.01868	-377.319	-235.778
2.03537	-381.317	-243.619
2.05205	-385.448	-251.778
2.06873	-389.718	-249.397
2.08542	-393.77	-244.581
2.1021	-397.879	-244.055
2.11878	-401.913	-245.531
2.13547	-406.072	-245.541
2.15215	-410.106	-243.329
2.16883	-414.191	-242.399
2.18552	-418.194	-239.36
2.2022	-422.178	-240.43
2.21888	-426.216	-237.303
2.23557	-430.096	-211.337
2.25225	-433.268	-228.295
2.26893	-437.713	-257.748
2.28562	-441.868	-333.962
2.3023	-448.856	-245.739
2.31898	-450.067	-133.643
2.33567	-453.315	-200.557
2.35235	-456.759	-200.372
2.36903	-460.001	-218.908
2.38572	-464.064	-219.095
2.4024	-467.312	-236.711
2.41908	-471.962	-271.852
2.43577	-476.382	-242.983
2.45245	-480.069	-231.273
2.46913	-484.099	-241.606
2.48582	-488.131	-246.146
2.5025	-492.312	-242.401
2.51918	-496.219	-217.642
2.53587	-499.574	-249.14
2.55255	-504.532	-273.813
2.56923	-508.711	-284.689
2.58592	-514.031	-262.229
2.6026	-517.46	-221.966
2.61928	-521.437	-259.794
2.63597	-526.129	-267.892
2.65265	-530.376	-265.022
2.66933	-534.972	-272.307
2.68602	-539.462	-263.415
2.7027	-543.761	-253.484
2.71938	-547.92	-264.489
2.73607	-552.586	-264.953
2.75275	-556.761	-329.347
2.76943	-563.575	-307.054
2.78612	-567.006	-223.294
2.8028	-571.026	-256.487
2.81948	-575.564	-262.82
2.83617	-579.795	-271.134
2.85285	-584.611	-289.463

File: DSC_1730_S.txt
1.51818	-195.44	-6.86036
1.53487	-195.606	-14.9504
1.55155	-195.939	-25.6911
1.56823	-196.463	-38.8486
1.58492	-197.235	-52.9855
1.6016	-198.231	-63.4357
1.61828	-199.351	-67.7254
1.63497	-200.491	-77.7552
1.65165	-201.946	-88.0505
1.66833	-203.429	-102.54
1.68502	-205.367	-118.871
1.7017	-207.395	-135.736
1.71838	-209.896	-150.719
1.73507	-212.424	-142.541
1.75175	-214.653	-142.592
1.76843	-217.182	-146.65
1.78512	-219.546	-151.392
1.8018	-222.234	-160.464
1.81848	-224.9	-159.04
1.83517	-227.54	-157.591
1.85185	-230.158	-152.373
1.86853	-232.625	-155.024
1.88522	-235.331	-160.248
1.9019	-237.971	-152.193
1.91858	-240.409	-143.598
1.93527	-242.763	-131.943
1.95195	-244.812	-122.898
1.96863	-246.864	-126.779
1.98532	-249.042	-124.833
2.002	-251.029	-122.369
2.01868	-253.125	-128.34
2.03537	-255.311	-127.17
2.05205	-257.368	-125.688
2.06873	-259.505	-123.66
2.08542	-261.494	-115.979
2.1021	-263.375	-123.881
2.11878	-265.628	-143.912
2.13547	-268.177	-158.266
2.15215	-270.908	-159.831
2.16883	-273.51	-155.763
2.18552	-276.106	-147.858
2.2022	-278.443	-139.097
2.21888	-280.747	-146.385
2.23557	-283.327	-139.678
2.25225	-285.407	-128.246
2.26893	-287.607	-164.025
2.28562	-290.88	-141.225
2.35235	-301.454	-136.297
2.36903	-303.927	-154.504
2.38572	-306.609	-159.964
2.4024	-309.265	-163.812
2.41908	-312.075	-166.193
2.43577	-314.81	-161.252
2.45245	-317.456	-163.669
2.46913	-320.271	-171.573
2.48582	-323.18	-173.198
2.5025	-326.05	-164.34
2.51918	-328.664	-161.506
2.53587	-331.439	-167.225
2.55255	-334.244	-165.329
2.56923	-336.955	-158.996
2.58592	-339.549	-159.797
2.6026	-342.287	-162.93
2.61928	-344.985	-157.819
2.63597	-347.553	-156.829
2.65265	-350.218	-156.284
2.66933	-352.768	-156.31
2.68602	-355.434	-158.138
2.7027	-358.045	-150.298
2.71938	-360.448	-155.293
2.73607	-363.226	-156.804
2.75275	-365.68	-151.425
2.76943	-368.279	-160.467
2.78612	-371.035	-154.455
2.8028	-373.432	-148.496
2.81948	-375.99	-153.777
2.83617	-378.563	-154.505
2.85285	-381.145	-155.873
2.86953	-383.764	-161.982
2.88622	-386.55	-161.245
2.9029	-389.144	-156.467
2.91958	-391.77	-157.436
2.93627	-394.398	-164.291
2.95295	-397.252	-173.51
2.96963	-400.187	-170.407
2.98632	-402.938	-158.619
3.003	-405.48	-166.836
3.01968	-408.505	-177.83
3.03637	-411.413	-176.262
3.05305	-414.386	-176.092
3.06973	-417.289	-173.603
3.08642	-420.179	-172.081
3.1031	-423.031	-162.514
3.11978	-425.601	-176.664
3.13647	-428.925	-184.171
3.15315	-431.747	-184.539
3.16983	-435.083	-178.058
3.18652	-437.688	-168.445
3.2032	-440.703	-171.207
3.21988	-443.4	-174.647
3.23657	-446.531	-184.762
3.25325	-449.565	-169.321

File: DSC_1731_M.txt
1.83517	-197.867	-38.4876
1.85185	-198.541	-46.8709
1.86853	-199.43	-55.911
1.88522	-200.407	-67.6862
1.9019	-201.689	-78.9932
1.91858	-203.042	-97.7425
1.93527	-204.95	-114.893
1.95195	-206.876	-125.274
1.96863	-209.13	-135.422
1.98532	-211.395	-149.205
2.002	-214.109	-149.636
2.01868	-216.387	-154.354
2.03537	-219.259	-174.374
2.05205	-222.206	-175.784
2.06873	-225.124	-179.508
2.08542	-228.195	-175.866
2.1021	-230.992	-173.986
2.11878	-234.001	-179.871
2.13547	-236.994	-167.577
2.15215	-239.592	-158.816
2.16883	-242.293	-163.71
2.18552	-245.055	-149.476
2.2022	-247.281	-131.31
2.21888	-249.436	-133.292
2.23557	-251.728	-137.881
2.25225	-254.037	-135.873
2.26893	-256.262	-142.793
2.28562	-258.801	-150.605
2.3023	-261.287	-158.003
2.31898	-264.073	-156.33
2.33567	-266.503	-158.256
2.35235	-269.354	-168.688
2.36903	-272.132	-179.782
2.38572	-275.352	-186.563
2.4024	-278.357	-181.167
2.41908	-281.397	-193.004
2.43577	-284.797	-202.387
2.45245	-288.15	-204.355
2.46913	-291.615	-213.891
2.48582	-295.287	-239.209
2.5025	-299.597	-206.432
2.51918	-302.175	-183.925
2.53587	-305.734	-208.824
2.55255	-309.143	-202.408
2.56923	-312.488	-209.635
2.58592	-316.138	-220.654
2.6026	-319.85	-214.279
2.61928	-323.287	-213.957
2.63597	-326.989	-214.455
2.65265	-330.443	-215.381
2.66933	-334.176	-212.009
2.68602	-337.517	-209.947
2.7027	-341.181	-211.606
2.71938	-344.578	-211.717
2.73607	-348.245	-219.573
2.75275	-351.904	-212.93
2.76943	-355.35	-209.846
2.78612	-358.906	-208.88
2.8028	-362.32	-207.097
2.81948	-365.816	-207.528
2.83617	-369.244	-195.154
2.85285	-372.328	-185.639
2.86953	-375.438	-181.776
2.88622	-378.393	-176.711
2.9029	-381.335	-178.833
2.91958	-384.36	-178.183
2.93627	-387.28	-177.27
2.95295	-390.275	-179.296
2.96963	-393.262	-177.63
2.98632	-396.202	-180.242
3.003	-399.276	-183.373
3.01968	-402.321	-183.253
3.03637	-405.391	-179.418
3.05305	-408.307	-179.44
3.06973	-411.378	-185.728
3.08642	-414.504	-195.822
3.1031	-417.912	-201
3.11978	-421.211	-192.963
3.13647	-424.351	-205.509
3.15315	-428.068	-210.374
3.16983	-431.37	-205.187
3.18652	-434.915	-205.786
3.2032	-438.237	-197.785
3.21988	-441.514	-208.331
3.23657	-445.188	-210.798
3.25325	-448.548	-211.388
3.26993	-452.241	-219.987
3.28662	-455.888	-209.813
3.3033	-459.242	-195.717
3.31998	-462.418	-203.905
3.33667	-466.046	-231.722
3.35335	-470.15	-238.484
3.37003	-474.003	-222.164
3.38672	-477.563	-213.427
3.4034	-481.125	-214.515
3.42008	-484.721	-209.397
3.43677	-488.111	-203.48
3.45345	-491.51	-201.514
3.47013	-494.835	-200.682
3.48682	-498.206	-195.841
3.5035	-501.37	-185.951
3.52018	-504.411	-181.019
3.53687	-507.41	-177.035
3.55355	-510.318	-171.205
3.57023	-513.122	-171.167
3.58692	-516.029	-164.527
3.6036	-518.612	-158.369
3.62028	-521.313	-166.515
3.63697	-524.168	-164.324
3.65365	-526.796	-134.298
3.67033	-528.649	-186.866
3.68702	-533.031	-225.38
3.7037	-536.169	-188.566
3.72038	-539.323	-199.522
3.73707	-542.827	-210.311
3.75375	-546.34	-208.126
3.77043	-549.771	-208.717
3.78712	-553.305	-215.393
3.8038	-556.958	-210.407
3.82048	-560.325	-207.689
3.83717	-563.888	-207.798
3.85385	-567.259	-197.007
3.87053	-570.462	-192.595
3.88722	-573.685	-195.438
3.9039	-576.983	-193.532
3.92058	-580.142	-194.357
3.93727	-583.468	-184.214
3.95395	-586.289	-140.432
3.97063	-588.153	-16.4551

File: DSC_1732_L.txt
2.3023	-199.203	-3.52351
2.31898	-199.304	-27.5125
2.33567	-200.121	-30.1099
2.35235	-200.308	-34.5376
2.36903	-201.273	-55.3891
2.38572	-202.157	-58.4416
2.4024	-203.223	-84.664
2.41908	-204.981	-94.0759
2.43577	-206.362	-93.6843
2.45245	-208.107	-114.307
2.46913	-210.176	-128.567
2.48582	-212.397	-145.772
2.5025	-215.04	-159.477
2.51918	-217.718	-170.188
2.53587	-220.719	-185.758
2.55255	-223.917	-190.269
2.56923	-227.067	-188.245
2.58592	-230.198	-192.636
2.6026	-233.495	-206.002
2.61928	-237.071	-219.548
2.63597	-240.821	-215.189
2.65265	-244.251	-214.024
2.66933	-247.962	-208.898
2.68602	-251.222	-207.031
2.7027	-254.87	-207.842
2.71938	-258.157	-188.988
2.73607	-261.176	-180.088
2.75275	-264.166	-179.604
2.76943	-267.169	-179.724
2.78612	-270.162	-177.602
2.8028	-273.095	-173.907
2.81948	-275.965	-176.445
2.83617	-278.982	-177.978
2.85285	-281.904	-177.683
2.86953	-284.911	-166.597
2.88622	-287.462	-184.018
2.9029	-291.051	-201.978
2.91958	-294.202	-188.163
2.93627	-297.329	-202.635
2.95295	-300.963	-207.32
2.96963	-304.247	-210.3
2.98632	-307.98	-216.776
3.003	-311.48	-214.827
3.01968	-315.148	-231.907
3.03637	-319.218	-238.863
3.05305	-323.118	-235.829
3.06973	-327.087	-241.688
3.08642	-331.182	-242.505
3.1031	-335.178	-240.866
3.11978	-339.219	-242.09
3.13647	-343.256	-239.334
3.15315	-347.205	-240.25
3.16983	-351.272	-240.041
3.18652	-355.214	-241.347
3.2032	-359.325	-240.281
3.21988	-363.232	-238.386
3.23657	-367.279	-242.168
3.25325	-371.312	-239.927
3.26993	-375.285	-238.686
3.28662	-379.276	-237.476
3.3033	-383.209	-241.562
3.31998	-387.336	-257.967
3.33667	-391.816	-259.102
3.35335	-395.982	-244.898
3.37003	-399.988	-237.794
3.38672	-403.916	-249.127
3.4034	-408.3	-250.792
3.42008	-412.284	-237.661
3.43677	-416.23	-235.075
3.45345	-420.128	-234.823
3.47013	-424.065	-232.981
3.48682	-427.902	-212.607
3.5035	-431.159	-151.727
3.52018	-432.964	-228.629
3.53687	-438.788	-273.19
3.55355	-442.08	-234.649
3.57023	-446.617	-230.57
3.58692	-449.773	-192.612
3.6036	-453.044	-189.603
3.62028	-456.1	-201.488
3.63697	-459.767	-208.606
3.65365	-463.06	-215.763
3.67033	-466.966	-218.855
3.68702	-470.363	-213.006
3.7037	-474.074	-227.44
3.72038	-477.951	-229.25
3.73707	-481.723	-223.135
3.75375	-485.397	-222.847
3.77043	-489.159	-229.385
3.78712	-493.05	-236.507
3.8038	-497.05	-238.862
3.82048	-501.021	-238.453
3.83717	-505.006	-241.634
3.85385	-509.083	-246.541
3.87053	-513.233	-246.653
3.88722	-517.313	-269.876
3.9039	-522.238	-256.862
3.92058	-525.884	-238.567
3.93727	-530.198	-256.23
3.95395	-534.433	-260.099
3.97063	-538.876	-259.384
3.98732	-543.088	-265.318
4.004	-547.729	-267.201
4.02068	-552.004	-260.754
4.03737	-556.43	-269.101
4.05405	-560.983	-263.651
4.07073	-565.227	-263.312
4.08742	-569.768	-260.348
4.1041	-573.914	-235.725
4.12078	-577.634	-251.759
4.13747	-582.314	-300.469
4.15415	-587.659	-244.597