Folder: courses/sem2/lab/dragforce/data/water (part 2)

File: DSC_1733_S.txt
1.66833	-203.878	4.71864
1.68502	-203.843	5.34142
1.7017	-203.7	-10.9536
1.71838	-204.208	-16.5911
1.73507	-204.253	-23.9078
1.75175	-205.006	-36.8096
1.76843	-205.482	-32.0431
1.78512	-206.075	-42.4482
1.8018	-206.898	-45.7624
1.81848	-207.602	-47.804
1.83517	-208.493	-50.0662
1.85185	-209.272	-50.5084
1.86853	-210.178	-64.898
1.88522	-211.438	-75.7633
1.9019	-212.706	-85.0619
1.91858	-214.276	-95.9269
1.93527	-215.907	-100.421
1.95195	-217.627	-109.754
1.96863	-219.569	-118.72
1.98532	-221.588	-139.54
2.002	-224.225	-134.167
2.01868	-226.065	-115.226
2.03537	-228.07	-124.341
2.05205	-230.214	-128.058
2.06873	-232.343	-135.706
2.08542	-234.742	-147.094
2.1021	-237.251	-139.872
2.11878	-239.409	-140.041
2.13547	-241.923	-139.502
2.15215	-244.063	-124.191
2.16883	-246.067	-122.59
2.18552	-248.154	-126.933
2.2022	-250.303	-120.786
2.21888	-252.184	-113.053
2.23557	-254.075	-124.772
2.25225	-256.347	-129.856
2.26893	-258.408	-120.341
2.28562	-260.363	-121.529
2.3023	-262.463	-137.956
2.31898	-264.966	-147.853
2.33567	-267.396	-146.984
2.35235	-269.87	-144.662
2.36903	-272.223	-156.694
2.38572	-275.099	-172.63
2.4024	-277.983	-169.868
2.41908	-280.767	-170.453
2.43577	-283.671	-161.419
2.45245	-286.153	-176.313
2.46913	-289.553	-157.304
2.48582	-291.401	-177.82
2.5025	-295.487	-190.627
2.51918	-297.762	-150.766
2.53587	-300.517	-172.773
2.55255	-303.527	-181.288
2.56923	-306.566	-184.674
2.58592	-309.689	-179.377
2.6026	-312.551	-166.8
2.61928	-315.254	-165.313
2.63597	-318.067	-167.579
2.65265	-320.846	-176.366
2.66933	-323.952	-176.78
2.68602	-326.744	-174.2
2.7027	-329.765	-180.14
2.71938	-332.755	-172.275
2.73607	-335.513	-175.531
2.75275	-338.609	-180.916
2.76943	-341.549	-176.874
2.78612	-344.511	-169.997
2.8028	-347.222	-163.453
2.81948	-349.965	-167.129
2.83617	-352.798	-177.974
2.85285	-355.903	-176.774
2.86953	-358.697	-175.2
2.88622	-361.749	-182.89
2.9029	-364.799	-177.059
2.91958	-367.657	-166.45
2.93627	-370.353	-180.275
2.95295	-373.672	-192.737
2.96963	-376.784	-181.661
2.98632	-379.734	-163.425
3.003	-382.237	-160.562
3.01968	-385.091	-170.553
3.03637	-387.928	-170.413
3.05305	-390.777	-170.425
3.06973	-393.614	-165.881
3.08642	-396.312	-162.702
3.1031	-399.043	-167.74
3.11978	-401.909	-167.635
3.13647	-404.636	-167.614
3.15315	-407.502	-162.571
3.16983	-410.061	-161.558
3.18652	-412.892	-169.617
3.2032	-415.72	-162.353
3.21988	-418.31	-161.965
3.23657	-421.125	-165.412
3.25325	-423.829	-166.956
3.26993	-426.695	-169.365
3.28662	-429.48	-160.484
3.3033	-432.05	-157.587
3.31998	-434.738	-172.364
3.33667	-437.801	-175.631
3.35335	-440.598	-172.406
3.37003	-443.554	-165.267
3.38672	-446.113	-165.121
3.4034	-449.064	-176.072
3.42008	-451.988	-159.225
3.43677	-454.376	-153.011
3.45345	-457.093	-158.217
3.47013	-459.656	-158.591
3.48682	-462.385	-171.86
3.5035	-465.39	-184.591
3.52018	-468.544	-195.334
3.53687	-471.908	-191.121
3.55355	-474.921	-176.554
3.57023	-477.799	-173.609
3.58692	-480.714	-179.753
3.6036	-483.796	-179.726
3.62028	-486.711	-182.999
3.63697	-489.902	-175.393
3.65365	-492.563	-178.091
3.67033	-495.845	-187.024
3.68702	-498.803	-163.248
3.7037	-501.292	-149.974
3.72038	-503.808	-224.393
3.73707	-508.779	-220.577
3.75375	-511.167	-144.664
3.77043	-513.606	-165.178
3.78712	-516.679	-183.146
3.8038	-519.717	-171.729
3.82048	-522.409	-179.43
3.83717	-525.704	-186.325
3.85385	-528.626	-178.858
3.87053	-531.672	-171.999
3.88722	-534.365	-186.633
3.9039	-537.899	-177.012
3.92058	-540.271	-162.515
3.93727	-543.322	-173.654
3.95395	-546.066	-168.565
3.97063	-548.946	-167.908
3.98732	-551.668	-160.092
4.004	-554.288	-140.287
4.02068	-556.349	-172.203
4.03737	-560.034	-144.777
4.05405	-561.18	1012.43
4.07073	-526.252	-214.667
4.08742	-568.342	-1312.42
4.1041	-570.044	-133.283
4.12078	-572.79	-159.942
4.13747	-575.38	-159.433
4.15415	-578.109	-166.446
4.17083	-580.934	-166.202
4.18752	-583.655	-158.69
4.2042	-586.229	-163.454
4.22088	-589.109	-179.383
4.23757	-592.214	-172.935
4.25425	-594.879	-165.89
4.27093	-597.75	-170.539

File: DSC_1734_M.txt
2.2022	-203.02	-4.13252
2.21888	-203.138	-22.9716
2.23557	-203.786	-26.3639
2.25225	-204.018	-29.27
2.26893	-204.763	-54.0894
2.28562	-205.822	-61.3303
2.3023	-206.809	-57.8582
2.31898	-207.753	-55.1022
2.33567	-208.648	-51.458
2.35235	-209.47	-61.8203
2.36903	-210.71	-81.752
2.38572	-212.198	-96.3232
2.4024	-213.924	-107.284
2.41908	-215.777	-113.99
2.43577	-217.728	-127.3
2.45245	-220.025	-143.633
2.46913	-222.52	-152.664
2.48582	-225.119	-161.893
2.5025	-227.922	-168.064
2.51918	-230.727	-164.314
2.53587	-233.405	-164.797
2.55255	-236.225	-177.006
2.56923	-239.311	-182.788
2.58592	-242.324	-187.841
2.6026	-245.579	-189.01
2.61928	-248.631	-183.74
2.63597	-251.709	-183.2
2.65265	-254.744	-183.884
2.66933	-257.845	-185.686
2.68602	-260.939	-180.858
2.7027	-263.88	-174.69
2.71938	-266.768	-178.108
2.73607	-269.822	-183.707
2.75275	-272.898	-193.545
2.76943	-276.28	-196.049
2.78612	-279.439	-174.114
2.8028	-282.09	-171.75
2.81948	-285.17	-179.337
2.83617	-288.074	-192.779
2.85285	-291.603	-210.821
2.86953	-295.108	-222.334
2.88622	-299.021	-207.111
2.9029	-302.019	-178.985
2.91958	-304.993	-193.034
2.93627	-308.46	-204.907
2.95295	-311.83	-202.752
2.96963	-315.225	-209.124
2.98632	-318.808	-211.703
3.003	-322.289	-215.469
3.01968	-325.998	-219.335
3.03637	-329.607	-217.057
3.05305	-333.24	-220.92
3.06973	-336.979	-227.57
3.08642	-340.833	-227.218
3.1031	-344.56	-227.744
3.11978	-348.432	-225.657
3.13647	-352.09	-225.697
3.15315	-355.963	-231.769
3.16983	-359.823	-231.816
3.18652	-363.698	-227.404
3.2032	-367.411	-221.255
3.21988	-371.081	-225.175
3.23657	-374.924	-226.003
3.25325	-378.622	-229.344
3.26993	-382.576	-235.329
3.28662	-386.474	-227.269
3.3033	-390.16	-225.731
3.31998	-394.006	-232.885
3.33667	-397.93	-235.962
3.35335	-401.879	-234.997
3.37003	-405.771	-238.463
3.38672	-409.836	-239.031
3.4034	-413.747	-235.709
3.42008	-417.7	-240.945
3.43677	-421.786	-228.787
3.45345	-425.334	-221.82
3.47013	-429.188	-230.799
3.48682	-433.035	-233.118
3.5035	-436.966	-235.226
3.52018	-440.884	-238.9
3.53687	-444.938	-241.303
3.55355	-448.935	-229.474
3.57023	-452.594	-215.124
3.58692	-456.113	-200.809
3.6036	-459.295	-204.398
3.62028	-462.934	-227.059
3.63697	-466.871	-250.579
3.65365	-471.294	-250.639
3.67033	-475.234	-231.004
3.68702	-479.002	-230.838
3.7037	-482.936	-232.991
3.72038	-486.776	-231.609
3.73707	-490.664	-228.897
3.75375	-494.414	-225.623
3.77043	-498.192	-228.988
3.78712	-502.055	-234.044
3.8038	-506.002	-240.641
3.82048	-510.084	-238.93
3.83717	-513.974	-234.903
3.85385	-517.922	-239.758
3.87053	-521.974	-231.459
3.88722	-525.645	-213.349
3.9039	-529.093	-238.772
3.92058	-533.612	-257.388
3.93727	-537.681	-243.591
3.95395	-541.74	-247.169
3.97063	-545.928	-245.437
3.98732	-549.929	-238.969
4.004	-553.902	-240.482
4.02068	-557.953	-236.891
4.03737	-561.806	-239.743
4.05405	-565.953	-249.721
4.07073	-570.138	-240.417
4.08742	-573.975	-233.104
4.1041	-577.916	-234.032
4.12078	-581.783	-245.039
4.13747	-586.092	-251.879
4.15415	-590.188	-243.904
4.17083	-594.231	-199.138
4.18752	-596.832	-26.705
4.2042	-595.122	92.1797

File: DSC_1735_L.txt
2.06873	-208.711	-60.2291
2.08542	-209.89	-69.6874
2.1021	-211.036	-89.8655
2.11878	-212.889	-115.121
2.13547	-214.877	-94.2714
2.15215	-216.034	-87.3585
2.16883	-217.792	-113.084
2.18552	-219.808	-123.333
2.2022	-221.907	-128.208
2.21888	-224.086	-148.889
2.23557	-226.875	-172.808
2.25225	-229.852	-155.046
2.26893	-232.048	-152.081
2.28562	-234.926	-178.722
2.3023	-238.012	-202.443
2.31898	-241.681	-212.079
2.33567	-245.088	-214.927
2.35235	-248.852	-211.56
2.36903	-252.147	-210.727
2.38572	-255.883	-222.622
2.4024	-259.575	-212.033
2.41908	-262.958	-214.46
2.43577	-266.731	-208.822
2.45245	-269.926	-186.622
2.46913	-272.958	-183.941
2.48582	-276.064	-198.908
2.5025	-279.595	-201.99
2.51918	-282.803	-188.669
2.53587	-285.89	-182.663
2.55255	-288.898	-182.187
2.56923	-291.969	-190.416
2.58592	-295.252	-183.922
2.6026	-298.106	-204.979
2.61928	-302.091	-206.815
2.63597	-305.007	-188.079
2.65265	-308.367	-208.429
2.66933	-311.961	-223.346
2.68602	-315.819	-233.76
2.7027	-319.761	-238.49
2.71938	-323.777	-240.815
2.73607	-327.796	-245.848
2.75275	-331.98	-242.42
2.76943	-335.885	-237.416
2.78612	-339.902	-242.789
2.8028	-343.986	-242.146
2.81948	-347.981	-245.217
2.83617	-352.168	-244.324
2.85285	-356.133	-242.422
2.86953	-360.257	-257.29
2.88622	-364.718	-260.061
2.9029	-368.934	-253.784
2.91958	-373.186	-261.906
2.93627	-377.673	-259.962
2.95295	-381.86	-254.684
2.96963	-386.171	-269.166
2.98632	-390.841	-263.699
3.003	-394.97	-247.433
3.01968	-399.098	-264.101
3.03637	-403.782	-262.752
3.05305	-407.865	-248.126
3.06973	-412.061	-242.416
3.08642	-415.953	-236.905
3.1031	-419.966	-240.908
3.11978	-423.992	-235.018
3.13647	-427.808	-230.722
3.15315	-431.69	-219.505
3.16983	-435.132	-213.025
3.18652	-438.798	-207.922
3.2032	-442.07	-205.089
3.21988	-445.641	-211.627
3.23657	-449.131	-199.564
3.25325	-452.3	-209.129
3.26993	-456.109	-209.263
3.28662	-459.282	-180.199
3.3033	-462.122	-204.435
3.31998	-466.104	-235.239
3.33667	-469.971	-238.481
3.35335	-474.061	-238.849
3.37003	-477.94	-237.584
3.38672	-481.988	-218.81
3.4034	-485.241	-215.864
3.42008	-489.191	-234.989
3.43677	-493.082	-237.345
3.45345	-497.11	-238.874
3.47013	-501.053	-240.124
3.48682	-505.123	-241.017
3.5035	-509.094	-236.792
3.52018	-513.023	-258.071
3.53687	-517.705	-273.531
3.55355	-522.15	-299.266
3.57023	-527.691	-237.212
3.58692	-530.065	-193.568
3.6036	-534.15	-252.174
3.62028	-538.479	-255.759
3.63697	-542.684	-242.98
3.65365	-546.587	-248.25
3.67033	-550.967	-245.692
3.68702	-554.785	-219.211
3.7037	-558.281	-220.544
3.72038	-562.144	-233.283
3.73707	-566.065	-228.378
3.75375	-569.764	-211.667
3.77043	-573.128	-214.092
3.78712	-576.907	-215.203
3.8038	-580.308	-219.368
3.82048	-584.227	-220.833
3.83717	-587.677	-215.143
3.85385	-591.406	-217.822
3.87053	-594.945	-210.712

File: DSC_1736_S.txt
0.567233	-200.12	-5.98822
0.583917	-200.2	-9.09722
0.6006	-200.424	-19.98
0.617283	-200.866	-18.9196
0.633967	-201.055	-12.7077
0.65065	-201.29	-24.3383
0.667333	-201.867	-28.9161
0.684017	-202.255	-33.9904
0.7007	-203.001	-51.8373
0.717383	-203.985	-59.3317
0.734067	-204.981	-59.278
0.75075	-205.963	-63.2736
0.767433	-207.092	-81.8188
0.784117	-208.693	-92.0144
0.8008	-210.163	-97.1669
0.817483	-211.935	-105.315
0.834167	-213.677	-112.962
0.85085	-215.704	-124.732
0.867533	-217.838	-127.946
0.884217	-219.973	-127.596
0.9009	-222.096	-128.707
0.917583	-224.268	-128.194
0.934267	-226.373	-115.23
0.95095	-228.113	-108.409
0.967633	-229.991	-114.571
0.984317	-231.936	-117.905
1.001	-233.925	-120.793
1.01768	-235.966	-117.208
1.03437	-237.835	-111.745
1.05105	-239.695	-110.438
1.06773	-241.52	-104.858
1.08442	-243.193	-103.302
1.1011	-244.967	-103.809
1.11778	-246.657	-98.2801
1.13447	-248.247	-102.687
1.15115	-250.083	-116.395
1.16783	-252.13	-118.527
1.18452	-254.038	-115.03
1.2012	-255.968	-123.921
1.21788	-258.173	-127.009
1.23457	-260.206	-138.017
1.25125	-262.778	-148.646
1.26793	-265.166	-151.9
1.28462	-267.847	-143.508
1.3013	-269.954	-127.478
1.31798	-272.1	-145.895
1.33467	-274.823	-152.15
1.35135	-277.177	-141.839
1.36803	-279.555	-149.599
1.38472	-282.169	-143.931
1.4014	-284.358	-141.261
1.41808	-286.882	-135.197
1.43477	-288.869	-130.822
1.45145	-291.247	-183.358
1.46813	-294.987	-176.304
1.48482	-297.13	-126.674
1.5015	-299.214	-141.162
1.51818	-301.84	-144.193
1.53487	-304.025	-147.204
1.55155	-306.752	-161.052
1.56823	-309.399	-157.029
1.58492	-311.991	-157.72
1.6016	-314.661	-156.519
1.61828	-317.214	-164.807
1.63497	-320.16	-170.507
1.65165	-322.903	-157.652
1.66833	-325.42	-155.769
1.68502	-328.1	-162.64
1.7017	-330.847	-163.496
1.71838	-333.556	-155.641
1.73507	-336.04	-157.495
1.75175	-338.811	-168.778
1.76843	-341.672	-159.841
1.78512	-344.144	-151.736
1.8018	-346.735	-151.071
1.81848	-349.185	-155.973
1.83517	-351.939	-152.608
1.85185	-354.277	-158.276
1.86853	-357.22	-162.88
1.88522	-359.712	-143.969
1.9019	-362.024	-138.548
1.91858	-364.334	-147.725
1.93527	-366.953	-150.287
1.95195	-369.349	-151.428
1.96863	-372.006	-151.757
1.98532	-374.413	-153.097
2.002	-377.114	-168.652
2.01868	-380.04	-172.956
2.03537	-382.885	-169.033
2.05205	-385.68	-162.862
2.06873	-388.319	-165.384
2.08542	-391.198	-178.543
2.1021	-394.277	-181.751
2.11878	-397.263	-175.811
2.13547	-400.143	-179.271
2.15215	-403.244	-179.132
2.16883	-406.12	-181.717
2.18552	-409.308	-182.488
2.2022	-412.209	-178.402
2.21888	-415.26	-176.98
2.23557	-418.114	-174.207
2.25225	-421.073	-177.853
2.26893	-424.049	-191.544
2.28562	-427.464	-203.645
2.3023	-430.844	-183.385
2.31898	-433.583	-179.572
2.33567	-436.835	-170.906
2.35235	-439.286	-152.159
2.36903	-441.912	-158.614
2.38572	-444.578	-154.15
2.4024	-447.056	-136.109
2.41908	-449.12	-138.584
2.43577	-451.68	-161.297
2.45245	-454.502	-159.819
2.46913	-457.013	-152.388
2.48582	-459.586	-127.104
2.5025	-461.254	-97.2684
2.51918	-462.832	-157.669
2.53587	-466.514	-201.627
2.55255	-469.559	-181.437
2.56923	-472.568	-180.783
2.58592	-475.592	-181.336
2.6026	-478.619	655.208
2.61928	-453.73	656.944
2.63597	-456.699	-178.074
2.65265	-459.671	-177.621
2.66933	-462.626	-179.182
2.68602	-465.65	-180.685
2.7027	-468.654	-179.293
2.71938	-471.632	-180.792
2.73607	-474.687	-181.033
2.75275	-477.673	-179.66
2.76943	-480.681	-179.134
2.78612	-483.65	-181.758
2.8028	-486.746	-179.898
2.81948	-489.653	-176.203
2.83617	-492.625	-176.898

File: DSC_1737_M.txt
1.21788	-204.067	-9.11921
1.23457	-204.304	-27.9293
1.25125	-204.999	-40.8347
1.26793	-205.667	-37.6252
1.28462	-206.255	-41.0706
1.3013	-207.037	-53.6055
1.31798	-208.043	-65.995
1.33467	-209.239	-83.167
1.35135	-210.818	-93.2173
1.36803	-212.35	-99.3736
1.38472	-214.134	-111.738
1.4014	-216.078	-121.726
1.41808	-218.196	-142.892
1.43477	-220.846	-149.684
1.45145	-223.19	-155.595
1.46813	-226.037	-172.161
1.48482	-228.934	-174.156
1.5015	-231.848	-178.113
1.51818	-234.878	-185.051
1.53487	-238.023	-186.929
1.55155	-241.115	-185.232
1.56823	-244.204	-181.944
1.58492	-247.186	-173.524
1.6016	-249.993	-170.774
1.61828	-252.884	-174.682
1.63497	-255.822	-161.057
1.65165	-258.258	-152.447
1.66833	-260.909	-148.213
1.68502	-263.203	-146.983
1.7017	-265.813	-149.772
1.71838	-268.2	-155.707
1.73507	-271.008	-171.669
1.75175	-273.928	-175.359
1.76843	-276.86	-180.26
1.78512	-279.943	-177.876
1.8018	-282.795	-167.176
1.81848	-285.521	-185.521
1.83517	-288.985	-200.997
1.85185	-292.228	-206.031
1.86853	-295.859	-218.062
1.88522	-299.504	-200.26
1.9019	-302.541	-196.704
1.91858	-306.067	-209.723
1.93527	-309.539	-209.153
1.95195	-313.046	-217.416
1.96863	-316.794	-211.043
1.98532	-320.088	-211.156
2.002	-323.839	-215.71
2.01868	-327.285	-214.864
2.03537	-331.009	-217.706
2.05205	-334.549	-211.612
2.06873	-338.069	-217.863
2.08542	-341.819	-218.939
2.1021	-345.375	-216.235
2.11878	-349.034	-222.347
2.13547	-352.794	-218.048
2.15215	-356.309	-215.839
2.16883	-359.995	-220.936
2.18552	-363.681	-221.528
2.2022	-367.387	-219.695
2.21888	-371.012	-220.188
2.23557	-374.734	-212.809
2.25225	-378.113	-216.72
2.26893	-381.965	-222.993
2.28562	-385.553	-216.197
2.3023	-389.179	-221.709
2.31898	-392.951	-214.81
2.33567	-396.346	-208.72
2.35235	-399.915	-209.589
2.36903	-403.34	-205.696
2.38572	-406.778	-210.14
2.4024	-410.351	-215.844
2.41908	-413.98	-222.703
2.43577	-417.782	-229.5
2.45245	-421.638	-227.977
2.46913	-425.389	-223.169
2.48582	-429.084	-226.611
2.5025	-432.95	-236.176
2.51918	-436.965	-238.838
2.53587	-440.92	-241.399
2.55255	-445.02	-249.698
2.56923	-449.251	-244.122
2.58592	-453.165	-221.965
2.6026	-456.657	-203.839
2.61928	-459.967	-219.195
2.63597	-463.971	-242.966
2.65265	-468.074	-250.267
2.66933	-472.322	-245.082
2.68602	-476.251	-234.206
2.7027	-480.136	-235.706
2.71938	-484.116	-237.047
2.73607	-488.046	-236.6
2.75275	-492.01	-238.161
2.76943	-495.993	-233.477
2.78612	-499.801	-232.278
2.8028	-503.743	-241.366
2.81948	-507.854	-241.143
2.83617	-511.789	-224.029
2.85285	-515.329	-223.814
2.86953	-519.257	-230.248
2.88622	-523.012	-219.991
2.9029	-526.597	-211.046
2.91958	-530.054	-222.258
2.93627	-534.013	-240.585
2.95295	-538.081	-238.297
2.96963	-541.965	-235.539
2.98632	-545.941	-221.359
3.003	-549.351	-225.358
3.01968	-553.46	-237.41
3.03637	-557.272	-242.455
3.05305	-561.55	-251.307
3.06973	-565.657	-241.349
3.08642	-569.603	-239.529
3.1031	-573.65	-245.259
3.11978	-577.786	-245.69
3.13647	-581.848	-251.687
3.15315	-586.184	-254.888
3.16983	-590.352	-244.525
3.18652	-594.343	-243.251
3.2032	-598.469	-230.529

File: DSC_1738_L.txt
1.58492	-205	-4.85369
1.6016	-205.182	-9.70927
1.61828	-205.323	-12.9898
1.63497	-205.616	-30.7953
1.65165	-206.351	-49.9854
1.66833	-207.284	-62.3151
1.68502	-208.43	-70.3166
1.7017	-209.63	-94.5042
1.71838	-211.584	-113.574
1.73507	-213.419	-117.813
1.75175	-215.515	-138.436
1.76843	-218.039	-151.467
1.78512	-220.569	-163.005
1.8018	-223.478	-171.163
1.81848	-226.28	-173.572
1.83517	-229.269	-181.216
1.85185	-232.326	-187.125
1.86853	-235.513	-207.719
1.88522	-239.257	-218.191
1.9019	-242.793	-217.295
1.91858	-246.508	-222.435
1.93527	-250.215	-220.878
1.95195	-253.878	-222.459
1.96863	-257.638	-221.032
1.98532	-261.253	-218.08
2.002	-264.914	-210.699
2.01868	-268.283	-197.367
2.03537	-271.5	-191.955
2.05205	-274.688	-194.846
2.06873	-278.001	-192.19
2.08542	-281.101	-191.685
2.1021	-284.397	-196.114
2.11878	-287.644	-196.635
2.13547	-290.958	-197.774
2.15215	-294.243	-199.319
2.16883	-297.609	-204.117
2.18552	-301.054	-207.028
2.2022	-304.517	-214.37
2.21888	-308.207	-222.534
2.23557	-311.942	-225.279
2.25225	-315.724	-231.967
2.26893	-319.682	-236.115
2.28562	-323.602	-240.688
2.3023	-327.713	-244.576
2.31898	-331.763	-243.044
2.33567	-335.822	-241.818
2.35235	-339.831	-241.724
2.36903	-343.888	-241.2
2.38572	-347.879	-240.283
2.4024	-351.905	-240.057
2.41908	-355.889	-237.624
2.43577	-359.834	-239.444
2.45245	-363.879	-238.893
2.46913	-367.805	-237.259
2.48582	-371.795	-236.314
2.5025	-375.69	-234.171
2.51918	-379.609	-240.203
2.53587	-383.705	-248.945
2.55255	-387.915	-247.391
2.56923	-391.959	-243.742
2.58592	-396.048	-250.985
2.6026	-400.334	-253.255
2.61928	-404.498	-251.701
2.63597	-408.732	-254.231
2.65265	-412.981	-254.156
2.66933	-417.213	-250.768
2.68602	-421.349	-250.033
2.7027	-425.555	-257.647
2.71938	-429.945	-265.7
2.73607	-434.421	-262.439
2.75275	-438.702	-262.662
2.76943	-443.185	-269.717
2.78612	-447.702	-263.74
2.8028	-451.985	-245.228
2.81948	-455.884	-235.795
2.83617	-459.853	-241.017
2.85285	-463.926	-247.512
2.86953	-468.112	-257.564
2.88622	-472.52	-261.73
2.9029	-476.845	-259.47
2.91958	-481.178	-248.112
2.93627	-485.123	-245.407
2.95295	-489.366	-251.113
2.96963	-493.502	-251.841
2.98632	-497.769	-254.901
3.003	-502.007	-264.692
3.01968	-506.601	-274.332
3.03637	-511.161	-269.868
3.05305	-515.606	-264.14
3.06973	-519.974	-281.576
3.08642	-525.001	-287.174
3.1031	-529.556	-269.5
3.11978	-533.993	-276.511
3.13647	-538.783	-286.357
3.15315	-543.548	-293.587
3.16983	-548.579	-286.515

File: DSC_1741_L.txt
3.06973	-200.104	-91.1895
3.08642	-201.842	-98.6765
3.1031	-203.396	-99.5468
3.11978	-205.164	-124.358
3.13647	-207.546	-151.627
3.15315	-210.223	-168.011
3.16983	-213.152	-175.745
3.18652	-216.087	-176.429
3.2032	-219.038	-182.27
3.21988	-222.169	-195.085
3.23657	-225.548	-203.785
3.25325	-228.968	-196.635
3.26993	-232.109	-207.7
3.28662	-235.898	-228.841
3.3033	-239.744	-223.334
3.31998	-243.35	-216.839
3.33667	-246.98	-210.577
3.35335	-250.377	-209.165
3.37003	-253.959	-206.105
3.38672	-257.254	-201.906
3.4034	-260.696	-201.039
3.42008	-263.962	-186.246
3.43677	-266.91	-174.158
3.45345	-269.773	-176.612
3.47013	-272.803	-189.38
3.48682	-276.092	-187.438
3.5035	-279.057	-180.797
3.52018	-282.124	-176.502
3.53687	-284.947	-180.917
3.55355	-288.161	-186.937
3.57023	-291.184	-198.48
3.58692	-294.783	-223.615
3.6036	-298.645	-218.921
3.62028	-302.088	-197.186
3.63697	-305.225	-205.015
3.65365	-308.929	-227.245
3.67033	-312.807	-240.168
3.68702	-316.942	-240.99
3.7037	-320.848	-240.577
3.72038	-324.97	-237.889
3.73707	-328.786	-235.585
3.75375	-332.83	-243.902
3.77043	-336.924	-242.597
3.78712	-340.925	-239.543
3.8038	-344.917	-225.64
3.82048	-348.454	-218.284
3.83717	-352.2	-230.298
3.85385	-356.138	-237.664
3.87053	-360.13	-232.94
3.88722	-363.911	-227.631
3.9039	-367.725	-239.718
3.92058	-371.909	-240.845
3.93727	-375.762	-234.292
3.95395	-379.727	-246.615
3.97063	-383.99	-246.644
3.98732	-387.956	-242.568
4.004	-392.084	-242.333
4.02068	-396.042	-242.914
4.03737	-400.189	-247.806
4.05405	-404.311	-241.115
4.07073	-408.235	-246.074
4.08742	-412.521	-257.305
4.1041	-416.82	-252.945
4.12078	-420.961	-238.756
4.13747	-424.786	-238.824
4.15415	-428.93	-244.603
4.17083	-432.948	-244.587
4.18752	-437.091	-240.013
4.2042	-440.956	-234.201
4.22088	-444.906	-238.283
4.23757	-448.907	-224.565
4.25425	-452.399	-220.165
4.27093	-456.253	-222.51
4.28762	-459.823	-220.002
4.3043	-463.594	-209.46
4.32098	-466.812	-236.666
4.33767	-471.491	-260.778
4.35435	-475.513	-244.191
4.37103	-479.639	-239.1
4.38772	-483.491	-237.542
4.4044	-487.565	-241.049
4.42108	-491.534	-239.147
4.43777	-495.544	-222.523
4.45445	-498.959	-246.091
4.47113	-503.755	-288.585
4.48782	-508.588	-289.065
4.5045	-513.401	-235.304
4.52118	-516.44	-224.149
4.53787	-520.88	-267.36
4.55455	-525.36	-255.2
4.57123	-529.395	-263.837
4.58792	-534.164	-286.853
4.6046	-538.966	-273.463
4.62128	-543.288	-272.238
4.63797	-548.05	-271.708
4.65465	-552.354	-279.798
4.67133	-557.386	-292.641
4.68802	-562.119	-306.865

File: DSC_1745_L.txt
1.4014	-200.486	-57.2464
1.41808	-201.41	-61.0379
1.43477	-202.522	-71.4571
1.45145	-203.794	-71.4445
1.46813	-204.906	-82.5897
1.48482	-206.55	-90.5369
1.5015	-207.927	-107.576
1.51818	-210.14	-137.876
1.53487	-212.527	-141.677
1.55155	-214.867	-153.556
1.56823	-217.651	-170.09
1.58492	-220.542	-177.702
1.6016	-223.58	-179.373
1.61828	-226.527	-201.971
1.63497	-230.319	-207.86
1.65165	-233.463	-191.384
1.66833	-236.705	-210.594
1.68502	-240.49	-211.167
1.7017	-243.751	-212.88
1.71838	-247.593	-208.588
1.73507	-250.711	-209.446
1.75175	-254.581	-207.469
1.76843	-257.634	-187.032
1.78512	-260.822	-182.992
1.8018	-263.74	-171.367
1.81848	-266.54	-171.932
1.83517	-269.476	-178.569
1.85185	-272.498	-186.615
1.86853	-275.703	-183.922
1.88522	-278.635	-174.075
1.9019	-281.511	-175.022
1.91858	-284.475	-182.939
1.93527	-287.615	-192.206
1.95195	-290.888	-193.858
1.96863	-294.084	-199.332
1.98532	-297.539	-213.294
2.002	-301.201	-209.443
2.01868	-304.528	-212.622
2.03537	-308.295	-217.439
2.05205	-311.783	-218.666
2.06873	-315.591	-230.224
2.08542	-319.465	-221.237
2.1021	-322.973	-215.614
2.11878	-326.659	-234.425
2.13547	-330.795	-233.699
2.15215	-334.457	-230.504
2.16883	-338.486	-242.653
2.18552	-342.553	-240.049
2.2022	-346.496	-236.426
2.21888	-350.442	-236.155
2.23557	-354.376	-236.648
2.25225	-358.338	-239.167
2.26893	-362.356	-225.438
2.28562	-365.86	-218.106
2.3023	-369.633	-231.949
2.31898	-373.6	-235.118
2.33567	-377.479	-237.296
2.35235	-381.517	-244.376
2.36903	-385.633	-243.836
2.38572	-389.653	-239.368
2.4024	-393.62	-240.269
2.41908	-397.67	-242.651
2.43577	-401.716	-242.054
2.45245	-405.747	-236.961
2.46913	-409.623	-236.684
2.48582	-413.644	-239.137
2.5025	-417.602	-237.855
2.51918	-421.581	-234.477
2.53587	-425.426	-221.296
2.55255	-428.965	-217.324
2.56923	-432.677	-224.408
2.58592	-436.452	-211.698
2.6026	-439.741	-205.501
2.61928	-443.309	-209.276
2.63597	-446.723	-200.415
2.65265	-449.996	-206.454
2.66933	-453.612	-202.798
2.68602	-456.763	-180.931
2.7027	-459.649	-199.339
2.71938	-463.414	-225.336
2.73607	-467.168	-220.731
2.75275	-470.779	-217.572
2.76943	-474.428	-212.84
2.78612	-477.881	-214.153
2.8028	-481.573	-210.927
2.81948	-484.919	-215.573
2.83617	-488.766	-226.085
2.85285	-492.463	-229.049
2.86953	-496.409	-233.619
2.88622	-500.258	-230.035
2.9029	-504.084	-239.606
2.91958	-508.253	-246.624
2.93627	-512.313	-247.25
2.95295	-516.503	-238.295
2.96963	-520.264	-233.654
2.98632	-524.299	-241.562
3.003	-528.324	-235.025
3.01968	-532.141	-239.749
3.03637	-536.324	-248.32
3.05305	-540.427	-243.265
3.06973	-544.441	-241.938
3.08642	-548.499	-239.78
3.1031	-552.442	-235.907
3.11978	-556.371	-233.724
3.13647	-560.24	-234.721
3.15315	-564.202	-232.162
3.16983	-567.987	-212.264
3.18652	-571.285	-190.813
3.2032	-574.353	-225.638
3.21988	-578.814	-244.371
3.23657	-582.507	-225.564